sub	run	block	trail	oneset	duration	stim_file	stim_lable	level of occlusion	stim_started	stim_stopped	key_time	key_fix
63	1	1	1	40.024	4	Aircraft1_10%_2.jpg	0	0.1	40.024	43.755	41.958	0
63	1	1	2	44.072	4	Aircraft1_10%_39.jpg	0	0.1	44.072	47.808	45.402	0
63	1	1	3	48.087	4	Aircraft2_10%_26.jpg	1	0.1	48.087	51.82	49.195	1
63	1	1	4	52.143	4	Aircraft1_10%_15.jpg	0	0.1	52.143	55.879	54.125	0
63	1	1	5	56.153	4	Aircraft2_10%_16.jpg	1	0.1	56.153	59.886	57.405	1
63	1	1	6	60.155	4	rest.jpg	n/a	n/a	60.155	63.893	64.155	n/a
63	1	1	7	64.141	4	rest.jpg	n/a	n/a	64.141	67.876	68.141	n/a
63	1	1	8	68.125	4	rest.jpg	n/a	n/a	68.125	71.86	72.125	n/a
63	1	2	9	72.128	4	Aircraft2_90%_14.jpg	1	0.9	72.128	75.864	74.969	1
63	1	2	10	76.149	4	Aircraft2_90%_5.jpg	1	0.9	76.149	79.884	77.858	1
63	1	2	11	80.18	4	Aircraft2_90%_15.jpg	1	0.9	80.18	83.91	82.528	1
63	1	2	12	84.199	4	Aircraft2_90%_19.jpg	1	0.9	84.199	87.93	86.767	1
63	1	2	13	88.235	4	Aircraft1_90%_31.jpg	0	0.9	88.235	91.967	90.689	0
63	1	2	14	92.237	4	rest.jpg	n/a	n/a	92.237	95.967	96.237	n/a
63	1	2	15	96.201	4	rest.jpg	n/a	n/a	96.201	99.933	100.201	n/a
63	1	2	16	100.168	4	rest.jpg	n/a	n/a	100.168	103.906	104.168	n/a
63	1	3	17	104.226	4	Aircraft2_70%_4.jpg	1	0.75	104.226	107.956	106.395	1
63	1	3	18	108.245	4	Aircraft1_70%_43.jpg	0	0.75	108.245	111.975	110.956	0
63	1	3	19	112.267	4	Aircraft1_70%_9.jpg	0	0.75	112.267	116.002	114.103	0
63	1	3	20	116.284	4	Aircraft1_70%_11.jpg	0	0.75	116.284	120.016	119.107	0
63	1	3	21	120.289	4	Aircraft1_70%_50.jpg	0	0.75	120.289	124.025	121.984	0
63	1	3	22	124.308	4	rest.jpg	n/a	n/a	124.308	128.043	128.308	n/a
63	1	3	23	128.293	4	rest.jpg	n/a	n/a	128.293	132.03	132.293	n/a
63	1	3	24	132.262	4	rest.jpg	n/a	n/a	132.262	135.992	136.262	n/a
63	1	4	25	136.262	4	Aircraft1_10%_36.jpg	0	0.1	136.262	139.992	137.602	0
63	1	4	26	140.344	4	Aircraft1_10%_35.jpg	0	0.1	140.344	144.075	141.769	0
63	1	4	27	144.357	4	Aircraft2_10%_3.jpg	1	0.1	144.357	148.089	145.235	1
63	1	4	28	148.382	4	Aircraft1_10%_5.jpg	0	0.1	148.382	152.114	150.585	0
63	1	4	29	152.43	4	Aircraft1_10%_48.jpg	0	0.1	152.43	156.16	153.435	0
63	1	4	30	156.448	4	rest.jpg	n/a	n/a	156.448	160.182	160.448	n/a
63	1	4	31	160.428	4	rest.jpg	n/a	n/a	160.428	164.164	164.428	n/a
63	1	4	32	164.411	4	rest.jpg	n/a	n/a	164.411	168.141	168.411	n/a
63	1	5	33	168.426	4	Aircraft1_90%_3.jpg	0	0.9	168.426	172.163	170.734	0
63	1	5	34	172.441	4	Aircraft2_90%_28.jpg	1	0.9	172.441	176.174	174.607	1
63	1	5	35	176.485	4	Aircraft1_90%_24.jpg	0	0.9	176.485	180.218	178.79	0
63	1	5	36	180.534	4	Aircraft2_90%_39.jpg	1	0.9	180.534	184.267	183.23	1
63	1	5	37	184.534	4	Aircraft2_90%_8.jpg	1	0.9	184.534	188.272	187.57	1
63	1	5	38	188.542	4	rest.jpg	n/a	n/a	188.542	192.272	192.542	n/a
63	1	5	39	192.523	4	rest.jpg	n/a	n/a	192.523	196.257	196.523	n/a
63	1	5	40	196.505	4	rest.jpg	n/a	n/a	196.505	200.237	200.505	n/a
63	1	6	41	200.525	4	Aircraft2_70%_18.jpg	1	0.75	200.525	204.255	202.189	1
63	1	6	42	204.543	4	Aircraft1_70%_29.jpg	0	0.75	204.543	208.278	206.326	0
63	1	6	43	208.564	4	Aircraft2_70%_1.jpg	1	0.75	208.564	212.294	211.095	1
63	1	6	44	212.611	4	Aircraft1_70%_26.jpg	0	0.75	212.611	216.342	213.825	0
63	1	6	45	216.661	4	Aircraft2_70%_34.jpg	1	0.75	216.661	220.399	218.79	1
63	1	6	46	220.68	4	rest.jpg	n/a	n/a	220.68	224.417	224.68	n/a
63	1	6	47	224.651	4	rest.jpg	n/a	n/a	224.651	228.384	228.651	n/a
63	1	6	48	228.636	4	rest.jpg	n/a	n/a	228.636	232.365	232.636	n/a
63	1	7	49	232.675	4	Aircraft2_10%_17.jpg	1	0.1	232.675	236.407	233.591	1
63	1	7	50	236.68	4	Aircraft2_10%_11.jpg	1	0.1	236.68	240.411	237.456	1
63	1	7	51	240.73	4	Aircraft1_10%_20.jpg	0	0.1	240.73	244.46	242.11	0
63	1	7	52	244.746	4	Aircraft2_10%_47.jpg	1	0.1	244.746	248.476	246.399	1
63	1	7	53	248.787	4	Aircraft2_10%_45.jpg	1	0.1	248.787	252.52	250.477	1
63	1	7	54	252.791	4	rest.jpg	n/a	n/a	252.791	256.523	256.791	n/a
63	1	7	55	256.757	4	rest.jpg	n/a	n/a	256.757	260.494	260.757	n/a
63	1	7	56	260.743	4	rest.jpg	n/a	n/a	260.743	264.473	264.743	n/a
63	1	8	57	264.741	4	Aircraft1_90%_25.jpg	0	0.9	264.741	268.472	266.231	0
63	1	8	58	268.733	4	Aircraft2_90%_49.jpg	1	0.9	268.733	272.468	270.064	1
63	1	8	59	272.748	4	Aircraft2_90%_10.jpg	1	0.9	272.748	276.48	274.77	1
63	1	8	60	276.742	4	Aircraft2_90%_12.jpg	1	0.9	276.742	280.472	278.553	1
63	1	8	61	280.75	4	Aircraft2_90%_7.jpg	1	0.9	280.75	284.485	282.814	1
63	1	8	62	284.763	4	rest.jpg	n/a	n/a	284.763	288.495	288.763	n/a
63	1	8	63	288.741	4	rest.jpg	n/a	n/a	288.741	292.471	292.741	n/a
63	1	8	64	292.72	4	rest.jpg	n/a	n/a	292.72	296.452	296.72	n/a
63	1	9	65	296.715	4	Aircraft1_70%_32.jpg	0	0.75	296.715	300.445	298.522	0
63	1	9	66	300.718	4	Aircraft1_70%_49.jpg	0	0.75	300.718	304.453	301.845	0
63	1	9	67	304.743	4	Aircraft2_70%_22.jpg	1	0.75	304.743	308.478	306.527	1
63	1	9	68	308.764	4	Aircraft1_70%_34.jpg	0	0.75	308.764	312.501	309.62	0
63	1	9	69	312.82	4	Aircraft1_70%_14.jpg	0	0.75	312.82	316.555	314.926	0
63	1	9	70	316.843	4	rest.jpg	n/a	n/a	316.843	320.576	320.843	n/a
63	1	9	71	320.81	4	rest.jpg	n/a	n/a	320.81	324.545	324.81	n/a
63	1	9	72	324.779	4	rest.jpg	n/a	n/a	324.779	328.514	328.779	n/a
63	1	10	73	328.803	4	Aircraft1_10%_1.jpg	0	0.1	328.803	332.535	330.051	0
63	1	10	74	332.817	4	Aircraft1_10%_47.jpg	0	0.1	332.817	336.547	334.812	0
63	1	10	75	336.841	4	Aircraft1_10%_40.jpg	0	0.1	336.841	340.57	338.486	0
63	1	10	76	340.885	4	Aircraft1_10%_27.jpg	0	0.1	340.885	344.62	343.081	0
63	1	10	77	344.902	4	Aircraft2_10%_35.jpg	1	0.1	344.902	348.634	346.059	1
63	1	10	78	348.923	4	rest.jpg	n/a	n/a	348.923	352.659	352.923	n/a
63	1	10	79	352.905	4	rest.jpg	n/a	n/a	352.905	356.636	356.905	n/a
63	1	10	80	356.885	4	rest.jpg	n/a	n/a	356.885	360.617	360.885	n/a
63	1	11	81	360.903	4	Aircraft1_90%_32.jpg	0	0.9	360.903	364.633	362.114	0
63	1	11	82	364.9	4	Aircraft1_90%_49.jpg	0	0.9	364.9	368.632	366.811	0
63	1	11	83	368.916	4	Aircraft2_90%_22.jpg	1	0.9	368.916	372.651	371.224	1
63	1	11	84	372.929	4	Aircraft1_90%_34.jpg	0	0.9	372.929	376.66	374.587	0
63	1	11	85	376.967	4	Aircraft1_90%_14.jpg	0	0.9	376.967	380.702	378.57	0
63	1	11	86	380.971	4	rest.jpg	n/a	n/a	380.971	384.708	384.971	n/a
63	1	11	87	384.942	4	rest.jpg	n/a	n/a	384.942	388.672	388.942	n/a
63	1	11	88	388.906	4	rest.jpg	n/a	n/a	388.906	392.637	392.906	n/a
63	1	12	89	392.956	4	Aircraft2_70%_24.jpg	1	0.75	392.956	396.693	394.326	1
63	1	12	90	397.009	4	Aircraft2_70%_2.jpg	1	0.75	397.009	400.742	398.272	1
63	1	12	91	401.028	4	Aircraft2_70%_43.jpg	1	0.75	401.028	404.758	402.178	1
63	1	12	92	405.081	4	Aircraft2_70%_46.jpg	1	0.75	405.081	408.816	406.661	1
63	1	12	93	409.102	4	Aircraft1_70%_42.jpg	0	0.75	409.102	412.834	410.996	0
63	1	12	94	413.12	4	rest.jpg	n/a	n/a	413.12	416.856	417.12	n/a
63	1	12	95	417.102	4	rest.jpg	n/a	n/a	417.102	420.837	421.102	n/a
63	1	12	96	421.086	4	rest.jpg	n/a	n/a	421.086	424.817	425.086	n/a
63	1	13	97	425.092	4	Aircraft2_10%_30.jpg	1	0.1	425.092	428.83	426.482	1
63	1	13	98	429.111	4	Aircraft2_10%_27.jpg	1	0.1	429.111	432.848	432.139	1
63	1	13	99	433.142	4	Aircraft2_10%_50.jpg	1	0.1	433.142	436.88	434.361	1
63	1	13	100	437.191	4	Aircraft2_10%_29.jpg	1	0.1	437.191	440.923	438.846	1
63	1	13	101	441.198	4	Aircraft1_10%_6.jpg	0	0.1	441.198	444.934	443.628	0
63	1	13	102	445.219	4	rest.jpg	n/a	n/a	445.219	448.956	449.219	n/a
63	1	13	103	449.188	4	rest.jpg	n/a	n/a	449.188	452.92	453.188	n/a
63	1	13	104	453.163	4	rest.jpg	n/a	n/a	453.163	456.896	457.163	n/a
63	1	14	105	457.178	4	Aircraft2_90%_18.jpg	1	0.9	457.178	460.914	458.985	1
63	1	14	106	461.187	4	Aircraft1_90%_29.jpg	0	0.9	461.187	464.917	463.081	0
63	1	14	107	465.228	4	Aircraft2_90%_1.jpg	1	0.9	465.228	468.966	466.329	1
63	1	14	108	469.252	4	Aircraft1_90%_26.jpg	0	0.9	469.252	472.984	470.891	0
63	1	14	109	473.27	4	Aircraft2_90%_34.jpg	1	0.9	473.27	477	475.555	1
63	1	14	110	477.288	4	rest.jpg	n/a	n/a	477.288	481.025	481.288	n/a
63	1	14	111	481.258	4	rest.jpg	n/a	n/a	481.258	484.988	485.258	n/a
63	1	14	112	485.233	4	rest.jpg	n/a	n/a	485.233	488.966	489.233	n/a
63	1	15	113	489.239	4	Aircraft1_70%_17.jpg	0	0.75	489.239	492.974	490.752	0
63	1	15	114	493.259	4	Aircraft2_70%_42.jpg	1	0.75	493.259	496.996	495.488	1
63	1	15	115	497.286	4	Aircraft2_70%_44.jpg	1	0.75	497.286	501.021	499.256	1
63	1	15	116	501.309	4	Aircraft1_70%_10.jpg	0	0.75	501.309	505.044	502.323	0
63	1	15	117	505.318	4	Aircraft2_70%_25.jpg	1	0.75	505.318	509.054	506.761	1
63	1	15	118	509.341	4	rest.jpg	n/a	n/a	509.341	513.073	513.341	n/a
63	1	15	119	513.307	4	rest.jpg	n/a	n/a	513.307	517.043	517.307	n/a
63	1	15	120	517.276	4	rest.jpg	n/a	n/a	517.276	521.008	521.276	n/a
63	1	16	121	521.282	4	Aircraft1_10%_38.jpg	0	0.1	521.282	525.015	522.958	0
63	1	16	122	525.3	4	Aircraft2_10%_21.jpg	1	0.1	525.3	529.036	526.808	1
63	1	16	123	529.331	4	Aircraft1_10%_16.jpg	0	0.1	529.331	533.064	531.017	0
63	1	16	124	533.389	4	Aircraft1_10%_46.jpg	0	0.1	533.389	537.119	534.511	0
63	1	16	125	537.409	4	Aircraft2_10%_40.jpg	1	0.1	537.409	541.143	538.632	1
63	1	16	126	541.428	4	rest.jpg	n/a	n/a	541.428	545.163	545.428	n/a
63	1	16	127	545.41	4	rest.jpg	n/a	n/a	545.41	549.147	549.41	n/a
63	1	16	128	549.396	4	rest.jpg	n/a	n/a	549.396	553.125	553.396	n/a
63	1	17	129	553.408	4	Aircraft2_90%_4.jpg	1	0.9	553.408	557.144	554.717	1
63	1	17	130	557.443	4	Aircraft1_90%_43.jpg	0	0.9	557.443	561.177	559.04	0
63	1	17	131	561.452	4	Aircraft1_90%_9.jpg	0	0.9	561.452	565.189	563.295	0
63	1	17	132	565.455	4	Aircraft1_90%_11.jpg	0	0.9	565.455	569.192	566.939	0
63	1	17	133	569.474	4	Aircraft1_90%_50.jpg	0	0.9	569.474	573.21	570.442	0
63	1	17	134	573.497	4	rest.jpg	n/a	n/a	573.497	577.227	577.497	n/a
63	1	17	135	577.461	4	rest.jpg	n/a	n/a	577.461	581.191	581.461	n/a
63	1	17	136	581.439	4	rest.jpg	n/a	n/a	581.439	585.175	585.439	n/a
63	1	18	137	585.499	4	Aircraft1_70%_12.jpg	0	0.75	585.499	589.23	587.957	0
63	1	18	138	589.547	4	Aircraft2_70%_32.jpg	1	0.75	589.547	593.279	590.889	1
63	1	18	139	593.586	4	Aircraft2_70%_48.jpg	1	0.75	593.586	597.318	594.851	1
63	1	18	140	597.598	4	Aircraft1_70%_19.jpg	0	0.75	597.598	601.33	598.512	0
63	1	18	141	601.642	4	Aircraft1_70%_33.jpg	0	0.75	601.642	605.374	604.427	0
63	1	18	142	605.658	4	rest.jpg	n/a	n/a	605.658	609.39	609.658	n/a
63	1	18	143	609.638	4	rest.jpg	n/a	n/a	609.638	613.368	613.638	n/a
63	1	18	144	613.619	4	rest.jpg	n/a	n/a	613.619	617.349	617.619	n/a
63	1	19	145	617.637	4	Aircraft2_10%_23.jpg	1	0.1	617.637	621.371	618.876	1
63	1	19	146	621.677	4	Aircraft1_10%_28.jpg	0	0.1	621.677	625.412	622.653	0
63	1	19	147	625.685	4	Aircraft2_10%_13.jpg	1	0.1	625.685	629.423	627.435	1
63	1	19	148	629.707	4	Aircraft1_10%_45.jpg	0	0.1	629.707	633.442	631.82	0
63	1	19	149	633.734	4	Aircraft1_10%_37.jpg	0	0.1	633.734	637.466	636.103	0
63	1	19	150	637.736	4	rest.jpg	n/a	n/a	637.736	641.466	641.736	n/a
63	1	19	151	641.71	4	rest.jpg	n/a	n/a	641.71	645.446	645.71	n/a
63	1	19	152	645.695	4	rest.jpg	n/a	n/a	645.695	649.427	649.695	n/a
63	1	20	153	649.716	4	Aircraft2_90%_33.jpg	1	0.9	649.716	653.446	651.612	1
63	1	20	154	653.713	4	Aircraft2_90%_38.jpg	1	0.9	653.713	657.443	654.788	1
63	1	20	155	657.731	4	Aircraft1_90%_30.jpg	0	0.9	657.731	661.467	659.773	0
63	1	20	156	661.748	4	Aircraft1_90%_41.jpg	0	0.9	661.748	665.478	662.818	0
63	1	20	157	665.764	4	Aircraft1_90%_18.jpg	0	0.9	665.764	669.496	667.878	0
63	1	20	158	669.765	4	rest.jpg	n/a	n/a	669.765	673.501	673.765	n/a
63	1	20	159	673.747	4	rest.jpg	n/a	n/a	673.747	677.485	677.747	n/a
63	1	20	160	677.72	4	rest.jpg	n/a	n/a	677.72	681.45	681.72	n/a
63	1	21	161	681.732	4	Aircraft2_70%_9.jpg	1	0.75	681.732	685.465	683.235	1
63	1	21	162	685.752	4	Aircraft2_70%_6.jpg	1	0.75	685.752	689.488	687.444	1
63	1	21	163	689.773	4	Aircraft1_70%_23.jpg	0	0.75	689.773	693.503	690.818	0
63	1	21	164	693.826	4	Aircraft1_70%_21.jpg	0	0.75	693.826	697.555	694.931	0
63	1	21	165	697.874	4	Aircraft2_70%_36.jpg	1	0.75	697.874	701.606	698.641	1
63	1	21	166	701.894	4	rest.jpg	n/a	n/a	701.894	705.626	705.894	n/a
63	1	21	167	705.874	4	rest.jpg	n/a	n/a	705.874	709.607	709.874	n/a
63	1	21	168	709.86	4	rest.jpg	n/a	n/a	709.86	713.593	713.86	n/a
63	1	22	169	713.89	4	Aircraft2_10%_41.jpg	1	0.1	713.89	717.62	715.28	1
63	1	22	170	717.925	4	Aircraft1_10%_22.jpg	0	0.1	717.925	721.655	719.64	0
63	1	22	171	721.938	4	Aircraft1_10%_44.jpg	0	0.1	721.938	725.673	723.227	0
63	1	22	172	725.961	4	Aircraft1_10%_1.jpg	0	0.1	725.961	729.698	727.457	0
63	1	22	173	729.987	4	Aircraft2_10%_37.jpg	1	0.1	729.987	733.722	730.775	1
63	1	22	174	734.008	4	rest.jpg	n/a	n/a	734.008	737.741	738.008	n/a
63	1	22	175	737.987	4	rest.jpg	n/a	n/a	737.987	741.72	741.987	n/a
63	1	22	176	741.966	4	rest.jpg	n/a	n/a	741.966	745.701	745.966	n/a
63	1	23	177	745.969	4	Aircraft2_90%_31.jpg	1	0.9	745.969	749.706	747.86	1
63	1	23	178	749.985	4	Aircraft1_90%_4.jpg	0	0.9	749.985	753.722	751.571	0
63	1	23	179	754.001	4	Aircraft2_90%_20.jpg	1	0.9	754.001	757.739	755.223	1
63	1	23	180	758.056	4	Aircraft1_90%_7.jpg	0	0.9	758.056	761.788	760.17	0
63	1	23	181	762.073	4	Aircraft1_90%_8.jpg	0	0.9	762.073	765.809	764.285	0
63	1	23	182	766.095	4	rest.jpg	n/a	n/a	766.095	769.831	770.095	n/a
63	1	23	183	770.082	4	rest.jpg	n/a	n/a	770.082	773.815	774.082	n/a
63	1	23	184	774.063	4	rest.jpg	n/a	n/a	774.063	777.795	778.063	n/a
63	1	24	185	778.071	4	Aircraft2_70%_14.jpg	1	0.75	778.071	781.801	779.636	1
63	1	24	186	782.114	4	Aircraft2_70%_5.jpg	1	0.75	782.114	785.847	784.451	1
63	1	24	187	786.124	4	Aircraft2_70%_15.jpg	1	0.75	786.124	789.856	787.491	1
63	1	24	188	790.175	4	Aircraft2_70%_19.jpg	1	0.75	790.175	793.908	791.138	1
63	1	24	189	794.183	4	Aircraft1_70%_31.jpg	0	0.75	794.183	797.913	795.636	0
63	1	24	190	798.185	4	rest.jpg	n/a	n/a	798.185	801.918	802.185	n/a
63	1	24	191	802.171	4	rest.jpg	n/a	n/a	802.171	805.906	806.171	n/a
63	1	24	192	806.157	4	rest.jpg	n/a	n/a	806.157	809.889	810.157	n/a
63	1	25	193	810.185	4	Aircraft2_10%_9.jpg	1	0.1	810.185	813.92	811.526	1
63	1	25	194	814.19	4	Aircraft2_10%_6.jpg	1	0.1	814.19	817.925	816.784	1
63	1	25	195	818.203	4	Aircraft1_10%_23.jpg	0	0.1	818.203	821.933	820.82	0
63	1	25	196	822.223	4	Aircraft1_10%_21.jpg	0	0.1	822.223	825.955	824.267	0
63	1	25	197	826.242	4	Aircraft2_10%_36.jpg	1	0.1	826.242	829.972	827.914	1
63	1	25	198	830.247	4	rest.jpg	n/a	n/a	830.247	833.982	834.247	n/a
63	1	25	199	834.217	4	rest.jpg	n/a	n/a	834.217	837.95	838.217	n/a
63	1	25	200	838.2	4	rest.jpg	n/a	n/a	838.2	841.932	842.2	n/a
63	1	26	201	842.198	4	Aircraft2_90%_24.jpg	1	0.9	842.198	845.93	844.179	1
63	1	26	202	846.197	4	Aircraft2_90%_2.jpg	1	0.9	846.197	849.929	847.995	1
63	1	26	203	850.198	4	Aircraft2_90%_43.jpg	1	0.9	850.198	853.928	851.136	1
63	1	26	204	854.213	4	Aircraft2_90%_46.jpg	1	0.9	854.213	857.943	854.98	1
63	1	26	205	858.212	4	Aircraft1_90%_42.jpg	0	0.9	858.212	861.942	859.942	0
63	1	26	206	862.23	4	rest.jpg	n/a	n/a	862.23	865.965	866.23	n/a
63	1	26	207	866.2	4	rest.jpg	n/a	n/a	866.2	869.937	870.2	n/a
63	1	26	208	870.184	4	rest.jpg	n/a	n/a	870.184	873.916	874.184	n/a
63	1	27	209	874.192	4	Aircraft1_70%_3.jpg	0	0.75	874.192	877.929	875.604	0
63	1	27	210	878.225	4	Aircraft2_70%_28.jpg	1	0.75	878.225	881.961	879.643	1
63	1	27	211	882.253	4	Aircraft1_70%_24.jpg	0	0.75	882.253	885.983	883.697	0
63	1	27	212	886.27	4	Aircraft2_70%_39.jpg	1	0.75	886.27	890.006	887.121	1
63	1	27	213	890.293	4	Aircraft2_70%_8.jpg	1	0.75	890.293	894.023	892.72	1
63	1	27	214	894.293	4	rest.jpg	n/a	n/a	894.293	898.023	898.293	n/a
63	1	27	215	898.273	4	rest.jpg	n/a	n/a	898.273	902.005	902.273	n/a
63	1	27	216	902.252	4	rest.jpg	n/a	n/a	902.252	905.982	906.252	n/a
63	1	28	217	906.254	4	Aircraft1_10%_12.jpg	0	0.1	906.254	909.991	907.058	0
63	1	28	218	910.283	4	Aircraft2_10%_32.jpg	1	0.1	910.283	914.016	911.137	1
63	1	28	219	914.308	4	Aircraft2_10%_48.jpg	1	0.1	914.308	918.04	915.178	1
63	1	28	220	918.325	4	Aircraft1_10%_19.jpg	0	0.1	918.325	922.058	919.082	0
63	1	28	221	922.328	4	Aircraft1_10%_33.jpg	0	0.1	922.328	926.058	923.397	0
63	1	28	222	926.344	4	rest.jpg	n/a	n/a	926.344	930.082	930.344	n/a
63	1	28	223	930.316	4	rest.jpg	n/a	n/a	930.316	934.046	934.316	n/a
63	1	28	224	934.291	4	rest.jpg	n/a	n/a	934.291	938.021	938.291	n/a
63	1	29	225	938.306	4	Aircraft1_90%_17.jpg	0	0.9	938.306	942.039	940.724	0
63	1	29	226	942.307	4	Aircraft2_90%_42.jpg	1	0.9	942.307	946.037	944.13	1
63	1	29	227	946.322	4	Aircraft2_90%_44.jpg	1	0.9	946.322	950.054	947.49	1
63	1	29	228	950.322	4	Aircraft1_90%_10.jpg	0	0.9	950.322	954.054	952.632	0
63	1	29	229	954.321	4	Aircraft2_90%_25.jpg	1	0.9	954.321	958.053	955.905	1
63	1	29	230	958.323	4	rest.jpg	n/a	n/a	958.323	962.058	962.323	n/a
63	1	29	231	962.292	4	rest.jpg	n/a	n/a	962.292	966.023	966.292	n/a
63	1	29	232	966.269	4	rest.jpg	n/a	n/a	966.269	970.002	970.269	n/a
63	1	30	233	970.289	4	Aircraft1_70%_25.jpg	0	0.75	970.289	974.021	972.055	0
63	1	30	234	974.288	4	Aircraft2_70%_49.jpg	1	0.75	974.288	978.018	975.9	1
63	1	30	235	978.305	4	Aircraft2_70%_10.jpg	1	0.75	978.305	982.04	979.72	1
63	1	30	236	982.328	4	Aircraft2_70%_12.jpg	1	0.75	982.328	986.063	984.181	1
63	1	30	237	986.349	4	Aircraft2_70%_7.jpg	1	0.75	986.349	990.082	988.55	1
63	1	30	238	990.366	4	rest.jpg	n/a	n/a	990.366	994.098	994.366	n/a
63	1	30	239	994.332	4	rest.jpg	n/a	n/a	994.332	998.069	998.332	n/a
63	1	30	240	998.318	4	rest.jpg	n/a	n/a	998.318	1002.053	1002.318	n/a
