sub	run	block	trail	oneset	duration	stim_file	stim_lable	level of occlusion	stim_started	stim_stopped	key_time	key_fix
11	1	1	1	39.992	4	Aircraft1_10%_2.jpg	0	0.1	39.992	43.725	41.846	0
11	1	1	2	43.999	4	Aircraft1_10%_39.jpg	0	0.1	43.999	47.727	46.229	0
11	1	1	3	48.008	4	Aircraft2_10%_26.jpg	1	0.1	48.008	51.735	49.167	1
11	1	1	4	52.002	4	Aircraft1_10%_15.jpg	0	0.1	52.002	55.728	53.34	0
11	1	1	5	55.994	4	Aircraft2_10%_16.jpg	1	0.1	55.994	59.719	57.518	1
11	1	1	6	59.994	4	rest.jpg	n/a	n/a	59.994	63.721	63.994	n/a
11	1	1	7	63.967	4	rest.jpg	n/a	n/a	63.967	67.698	67.967	n/a
11	1	1	8	67.93	4	rest.jpg	n/a	n/a	67.93	71.654	71.93	n/a
11	1	2	9	71.916	4	Aircraft2_90%_14.jpg	1	0.9	71.916	75.64	73.846	1
11	1	2	10	75.922	4	Aircraft2_90%_5.jpg	1	0.9	75.922	79.651	76.983	1
11	1	2	11	79.927	4	Aircraft2_90%_15.jpg	1	0.9	79.927	83.651	81.954	1
11	1	2	12	83.922	4	Aircraft2_90%_19.jpg	1	0.9	83.922	87.646	86.616	1
11	1	2	13	87.913	4	Aircraft1_90%_31.jpg	0	0.9	87.913	91.639	90.437	0
11	1	2	14	91.902	4	rest.jpg	n/a	n/a	91.902	95.633	95.902	n/a
11	1	2	15	95.882	4	rest.jpg	n/a	n/a	95.882	99.612	99.882	n/a
11	1	2	16	99.844	4	rest.jpg	n/a	n/a	99.844	103.57	103.844	n/a
11	1	3	17	103.838	4	Aircraft2_70%_4.jpg	1	0.75	103.838	107.564	106.015	1
11	1	3	18	107.831	4	Aircraft1_70%_43.jpg	0	0.75	107.831	111.555	109.099	0
11	1	3	19	111.821	4	Aircraft1_70%_9.jpg	0	0.75	111.821	115.547	114.078	0
11	1	3	20	115.82	4	Aircraft1_70%_11.jpg	0	0.75	115.82	119.549	116.925	0
11	1	3	21	119.815	4	Aircraft1_70%_50.jpg	0	0.75	119.815	123.538	121.379	0
11	1	3	22	123.819	4	rest.jpg	n/a	n/a	123.819	127.543	127.819	n/a
11	1	3	23	127.778	4	rest.jpg	n/a	n/a	127.778	131.505	131.778	n/a
11	1	3	24	131.743	4	rest.jpg	n/a	n/a	131.743	135.47	135.743	n/a
11	1	4	25	135.748	4	Aircraft1_10%_36.jpg	0	0.1	135.748	139.474	137.445	0
11	1	4	26	139.741	4	Aircraft1_10%_35.jpg	0	0.1	139.741	143.471	140.903	0
11	1	4	27	143.735	4	Aircraft2_10%_3.jpg	1	0.1	143.735	147.46	144.694	1
11	1	4	28	147.739	4	Aircraft1_10%_5.jpg	0	0.1	147.739	151.463	148.904	0
11	1	4	29	151.747	4	Aircraft1_10%_48.jpg	0	0.1	151.747	155.471	153.298	0
11	1	4	30	155.745	4	rest.jpg	n/a	n/a	155.745	159.47	159.745	n/a
11	1	4	31	159.699	4	rest.jpg	n/a	n/a	159.699	163.425	163.699	n/a
11	1	4	32	163.655	4	rest.jpg	n/a	n/a	163.655	167.379	167.655	n/a
11	1	5	33	167.642	4	Aircraft1_90%_3.jpg	0	0.9	167.642	171.366	168.826	0
11	1	5	34	171.627	4	Aircraft2_90%_28.jpg	1	0.9	171.627	175.354	173.497	1
11	1	5	35	175.628	4	Aircraft1_90%_24.jpg	0	0.9	175.628	179.355	178.164	0
11	1	5	36	179.617	4	Aircraft2_90%_39.jpg	1	0.9	179.617	183.346	182.334	1
11	1	5	37	183.626	4	Aircraft2_90%_8.jpg	1	0.9	183.626	187.355	186.384	1
11	1	5	38	187.631	4	rest.jpg	n/a	n/a	187.631	191.357	191.631	n/a
11	1	5	39	191.588	4	rest.jpg	n/a	n/a	191.588	195.316	195.588	n/a
11	1	5	40	195.546	4	rest.jpg	n/a	n/a	195.546	199.27	199.546	n/a
11	1	6	41	199.537	4	Aircraft2_70%_18.jpg	1	0.75	199.537	203.266	200.897	1
11	1	6	42	203.55	4	Aircraft1_70%_29.jpg	0	0.75	203.55	207.275	204.457	0
11	1	6	43	207.542	4	Aircraft2_70%_1.jpg	1	0.75	207.542	211.273	209.9	1
11	1	6	44	211.547	4	Aircraft1_70%_26.jpg	0	0.75	211.547	215.273	213.23	0
11	1	6	45	215.539	4	Aircraft2_70%_34.jpg	1	0.75	215.539	219.265	217.744	1
11	1	6	46	219.543	4	rest.jpg	n/a	n/a	219.543	223.269	223.543	n/a
11	1	6	47	223.508	4	rest.jpg	n/a	n/a	223.508	227.232	227.508	n/a
11	1	6	48	227.464	4	rest.jpg	n/a	n/a	227.464	231.191	231.464	n/a
11	1	7	49	231.454	4	Aircraft2_10%_17.jpg	1	0.1	231.454	235.183	232.921	1
11	1	7	50	235.459	4	Aircraft2_10%_11.jpg	1	0.1	235.459	239.188	238.473	1
11	1	7	51	239.454	4	Aircraft1_10%_20.jpg	0	0.1	239.454	243.178	240.657	0
11	1	7	52	243.446	4	Aircraft2_10%_47.jpg	1	0.1	243.446	247.175	245.01	1
11	1	7	53	247.449	4	Aircraft2_10%_45.jpg	1	0.1	247.449	251.179	250.264	1
11	1	7	54	251.464	4	rest.jpg	n/a	n/a	251.464	255.19	255.464	n/a
11	1	7	55	255.422	4	rest.jpg	n/a	n/a	255.422	259.148	259.422	n/a
11	1	7	56	259.387	4	rest.jpg	n/a	n/a	259.387	263.116	263.387	n/a
11	1	8	57	263.395	4	Aircraft1_90%_25.jpg	0	0.9	263.395	267.118	264.841	0
11	1	8	58	267.378	4	Aircraft2_90%_49.jpg	1	0.9	267.378	271.109	269.789	1
11	1	8	59	271.381	4	Aircraft2_90%_10.jpg	1	0.9	271.381	275.111	275.381	1
11	1	8	60	275.381	4	Aircraft2_90%_12.jpg	1	0.9	275.381	279.107	275.527	1
11	1	8	61	279.368	4	Aircraft2_90%_7.jpg	1	0.9	279.368	283.097	280.694	1
11	1	8	62	283.381	4	rest.jpg	n/a	n/a	283.381	287.107	287.381	n/a
11	1	8	63	287.345	4	rest.jpg	n/a	n/a	287.345	291.075	291.345	n/a
11	1	8	64	291.306	4	rest.jpg	n/a	n/a	291.306	295.03	295.306	n/a
11	1	9	65	295.302	4	Aircraft1_70%_32.jpg	0	0.75	295.302	299.028	296.303	0
11	1	9	66	299.313	4	Aircraft1_70%_49.jpg	0	0.75	299.313	303.036	301.171	0
11	1	9	67	303.296	4	Aircraft2_70%_22.jpg	1	0.75	303.296	307.022	305.035	1
11	1	9	68	307.287	4	Aircraft1_70%_34.jpg	0	0.75	307.287	311.013	308.205	0
11	1	9	69	311.277	4	Aircraft1_70%_14.jpg	0	0.75	311.277	315.001	312.184	0
11	1	9	70	315.279	4	rest.jpg	n/a	n/a	315.279	319.008	319.279	n/a
11	1	9	71	319.251	4	rest.jpg	n/a	n/a	319.251	322.975	323.251	n/a
11	1	9	72	323.22	4	rest.jpg	n/a	n/a	323.22	326.946	327.22	n/a
11	1	10	73	327.223	4	Aircraft1_10%_1.jpg	0	0.1	327.223	330.947	328.14	0
11	1	10	74	331.212	4	Aircraft1_10%_47.jpg	0	0.1	331.212	334.941	332.319	0
11	1	10	75	335.209	4	Aircraft1_10%_40.jpg	0	0.1	335.209	338.939	336.234	0
11	1	10	76	339.207	4	Aircraft1_10%_27.jpg	0	0.1	339.207	342.936	340.133	0
11	1	10	77	343.204	4	Aircraft2_10%_35.jpg	1	0.1	343.204	346.934	345.164	1
11	1	10	78	347.211	4	rest.jpg	n/a	n/a	347.211	350.938	351.211	n/a
11	1	10	79	351.17	4	rest.jpg	n/a	n/a	351.17	354.899	355.17	n/a
11	1	10	80	355.131	4	rest.jpg	n/a	n/a	355.131	358.862	359.131	n/a
11	1	11	81	359.128	4	Aircraft1_90%_32.jpg	0	0.9	359.128	362.852	360.146	0
11	1	11	82	363.113	4	Aircraft1_90%_49.jpg	0	0.9	363.113	366.837	365.342	0
11	1	11	83	367.108	4	Aircraft2_90%_22.jpg	1	0.9	367.108	370.834	369.763	1
11	1	11	84	371.107	4	Aircraft1_90%_34.jpg	0	0.9	371.107	374.837	374.465	0
11	1	11	85	375.113	4	Aircraft1_90%_14.jpg	0	0.9	375.113	378.842	376.87	0
11	1	11	86	379.115	4	rest.jpg	n/a	n/a	379.115	382.845	383.115	n/a
11	1	11	87	383.075	4	rest.jpg	n/a	n/a	383.075	386.804	387.075	n/a
11	1	11	88	387.034	4	rest.jpg	n/a	n/a	387.034	390.764	391.034	n/a
11	1	12	89	391.027	4	Aircraft2_70%_24.jpg	1	0.75	391.027	394.756	392.252	1
11	1	12	90	395.018	4	Aircraft2_70%_2.jpg	1	0.75	395.018	398.742	396.447	1
11	1	12	91	399.025	4	Aircraft2_70%_43.jpg	1	0.75	399.025	402.749	399.988	1
11	1	12	92	403.016	4	Aircraft2_70%_46.jpg	1	0.75	403.016	406.746	404.734	1
11	1	12	93	407.012	4	Aircraft1_70%_42.jpg	0	0.75	407.012	410.736	408.16	0
11	1	12	94	410.999	4	rest.jpg	n/a	n/a	410.999	414.728	414.999	n/a
11	1	12	95	414.966	4	rest.jpg	n/a	n/a	414.966	418.692	418.966	n/a
11	1	12	96	418.923	4	rest.jpg	n/a	n/a	418.923	422.648	422.923	n/a
11	1	13	97	422.92	4	Aircraft2_10%_30.jpg	1	0.1	422.92	426.644	423.915	1
11	1	13	98	426.908	4	Aircraft2_10%_27.jpg	1	0.1	426.908	430.637	428.292	1
11	1	13	99	430.92	4	Aircraft2_10%_50.jpg	1	0.1	430.92	434.651	432.394	1
11	1	13	100	434.919	4	Aircraft2_10%_29.jpg	1	0.1	434.919	438.649	436.863	1
11	1	13	101	438.932	4	Aircraft1_10%_6.jpg	0	0.1	438.932	442.658	439.658	0
11	1	13	102	442.922	4	rest.jpg	n/a	n/a	442.922	446.653	446.922	n/a
11	1	13	103	446.884	4	rest.jpg	n/a	n/a	446.884	450.608	450.884	n/a
11	1	13	104	450.838	4	rest.jpg	n/a	n/a	450.838	454.563	454.838	n/a
11	1	14	105	454.825	4	Aircraft2_90%_18.jpg	1	0.9	454.825	458.556	456.311	1
11	1	14	106	458.818	4	Aircraft1_90%_29.jpg	0	0.9	458.818	462.542	460.298	0
11	1	14	107	462.802	4	Aircraft2_90%_1.jpg	1	0.9	462.802	466.526	463.827	1
11	1	14	108	466.787	4	Aircraft1_90%_26.jpg	0	0.9	466.787	470.514	468.691	0
11	1	14	109	470.788	4	Aircraft2_90%_34.jpg	1	0.9	470.788	474.517	473.458	1
11	1	14	110	474.79	4	rest.jpg	n/a	n/a	474.79	478.52	478.79	n/a
11	1	14	111	478.751	4	rest.jpg	n/a	n/a	478.751	482.475	482.751	n/a
11	1	14	112	482.722	4	rest.jpg	n/a	n/a	482.722	486.45	486.722	n/a
11	1	15	113	486.728	4	Aircraft1_70%_17.jpg	0	0.75	486.728	490.452	487.723	0
11	1	15	114	490.736	4	Aircraft2_70%_42.jpg	1	0.75	490.736	494.466	491.61	1
11	1	15	115	494.732	4	Aircraft2_70%_44.jpg	1	0.75	494.732	498.462	496.041	1
11	1	15	116	498.746	4	Aircraft1_70%_10.jpg	0	0.75	498.746	502.477	499.654	0
11	1	15	117	502.759	4	Aircraft2_70%_25.jpg	1	0.75	502.759	506.483	503.924	1
11	1	15	118	506.748	4	rest.jpg	n/a	n/a	506.748	510.472	510.748	n/a
11	1	15	119	510.717	4	rest.jpg	n/a	n/a	510.717	514.443	514.717	n/a
11	1	15	120	514.681	4	rest.jpg	n/a	n/a	514.681	518.408	518.681	n/a
11	1	16	121	518.68	4	Aircraft1_10%_38.jpg	0	0.1	518.68	522.405	520.135	0
11	1	16	122	522.671	4	Aircraft2_10%_21.jpg	1	0.1	522.671	526.401	523.512	1
11	1	16	123	526.684	4	Aircraft1_10%_16.jpg	0	0.1	526.684	530.416	527.839	0
11	1	16	124	530.685	4	Aircraft1_10%_46.jpg	0	0.1	530.685	534.409	531.91	0
11	1	16	125	534.673	4	Aircraft2_10%_40.jpg	1	0.1	534.673	538.402	535.76	1
11	1	16	126	538.68	4	rest.jpg	n/a	n/a	538.68	542.411	542.68	n/a
11	1	16	127	542.643	4	rest.jpg	n/a	n/a	542.643	546.367	546.643	n/a
11	1	16	128	546.599	4	rest.jpg	n/a	n/a	546.599	550.325	550.599	n/a
11	1	17	129	550.592	4	Aircraft2_90%_4.jpg	1	0.9	550.592	554.321	552.157	1
11	1	17	130	554.604	4	Aircraft1_90%_43.jpg	0	0.9	554.604	558.33	557.218	0
11	1	17	131	558.591	4	Aircraft1_90%_9.jpg	0	0.9	558.591	562.32	560.743	0
11	1	17	132	562.582	4	Aircraft1_90%_11.jpg	0	0.9	562.582	566.306	565.533	0
11	1	17	133	566.566	4	Aircraft1_90%_50.jpg	0	0.9	566.566	570.292	568.823	0
11	1	17	134	570.573	4	rest.jpg	n/a	n/a	570.573	574.303	574.573	n/a
11	1	17	135	574.534	4	rest.jpg	n/a	n/a	574.534	578.263	578.534	n/a
11	1	17	136	578.511	4	rest.jpg	n/a	n/a	578.511	582.24	582.511	n/a
11	1	18	137	582.508	4	Aircraft1_70%_12.jpg	0	0.75	582.508	586.235	583.555	0
11	1	18	138	586.51	4	Aircraft2_70%_32.jpg	1	0.75	586.51	590.234	587.527	1
11	1	18	139	590.513	4	Aircraft2_70%_48.jpg	1	0.75	590.513	594.243	593.643	1
11	1	18	140	594.515	4	Aircraft1_70%_19.jpg	0	0.75	594.515	598.239	595.395	0
11	1	18	141	598.525	4	Aircraft1_70%_33.jpg	0	0.75	598.525	602.255	599.544	0
11	1	18	142	602.52	4	rest.jpg	n/a	n/a	602.52	606.244	606.52	n/a
11	1	18	143	606.479	4	rest.jpg	n/a	n/a	606.479	610.203	610.479	n/a
11	1	18	144	610.441	4	rest.jpg	n/a	n/a	610.441	614.165	614.441	n/a
11	1	19	145	614.457	4	Aircraft2_10%_23.jpg	1	0.1	614.457	618.181	616.012	1
11	1	19	146	618.455	4	Aircraft1_10%_28.jpg	0	0.1	618.455	622.184	619.44	0
11	1	19	147	622.467	4	Aircraft2_10%_13.jpg	1	0.1	622.467	626.197	623.425	1
11	1	19	148	626.462	4	Aircraft1_10%_45.jpg	0	0.1	626.462	630.185	627.289	0
11	1	19	149	630.456	4	Aircraft1_10%_37.jpg	0	0.1	630.456	634.185	631.835	0
11	1	19	150	634.465	4	rest.jpg	n/a	n/a	634.465	638.189	638.465	n/a
11	1	19	151	638.421	4	rest.jpg	n/a	n/a	638.421	642.15	642.421	n/a
11	1	19	152	642.381	4	rest.jpg	n/a	n/a	642.381	646.111	646.381	n/a
11	1	20	153	646.38	4	Aircraft2_90%_33.jpg	1	0.9	646.38	650.104	648.507	1
11	1	20	154	650.383	4	Aircraft2_90%_38.jpg	1	0.9	650.383	654.107	651.694	1
11	1	20	155	654.381	4	Aircraft1_90%_30.jpg	0	0.9	654.381	658.105	656.08	0
11	1	20	156	658.375	4	Aircraft1_90%_41.jpg	0	0.9	658.375	662.099	661.151	0
11	1	20	157	662.366	4	Aircraft1_90%_18.jpg	0	0.9	662.366	666.095	663.624	0
11	1	20	158	666.378	4	rest.jpg	n/a	n/a	666.378	670.104	670.378	n/a
11	1	20	159	670.336	4	rest.jpg	n/a	n/a	670.336	674.063	674.336	n/a
11	1	20	160	674.293	4	rest.jpg	n/a	n/a	674.293	678.024	678.293	n/a
11	1	21	161	678.294	4	Aircraft2_70%_9.jpg	1	0.75	678.294	682.018	679.7	1
11	1	21	162	682.28	4	Aircraft2_70%_6.jpg	1	0.75	682.28	686.009	683.984	1
11	1	21	163	686.276	4	Aircraft1_70%_23.jpg	0	0.75	686.276	690	687.694	0
11	1	21	164	690.276	4	Aircraft1_70%_21.jpg	0	0.75	690.276	694.003	691.038	0
11	1	21	165	694.283	4	Aircraft2_70%_36.jpg	1	0.75	694.283	698.009	695.19	1
11	1	21	166	698.273	4	rest.jpg	n/a	n/a	698.273	701.996	702.273	n/a
11	1	21	167	702.235	4	rest.jpg	n/a	n/a	702.235	705.962	706.235	n/a
11	1	21	168	706.197	4	rest.jpg	n/a	n/a	706.197	709.921	710.197	n/a
11	1	22	169	710.196	4	Aircraft2_10%_41.jpg	1	0.1	710.196	713.92	711.47	1
11	1	22	170	714.188	4	Aircraft1_10%_22.jpg	0	0.1	714.188	717.914	715.449	0
11	1	22	171	718.178	4	Aircraft1_10%_44.jpg	0	0.1	718.178	721.908	718.991	0
11	1	22	172	722.193	4	Aircraft1_10%_1.jpg	0	0.1	722.193	725.919	722.931	0
11	1	22	173	726.184	4	Aircraft2_10%_37.jpg	1	0.1	726.184	729.915	727.001	1
11	1	22	174	730.197	4	rest.jpg	n/a	n/a	730.197	733.921	734.197	n/a
11	1	22	175	734.154	4	rest.jpg	n/a	n/a	734.154	737.877	738.154	n/a
11	1	22	176	738.111	4	rest.jpg	n/a	n/a	738.111	741.841	742.111	n/a
11	1	23	177	742.104	4	Aircraft2_90%_31.jpg	1	0.9	742.104	745.834	743.123	1
11	1	23	178	746.113	4	Aircraft1_90%_4.jpg	0	0.9	746.113	749.839	749.228	0
11	1	23	179	750.108	4	Aircraft2_90%_20.jpg	1	0.9	750.108	753.838	750.964	1
11	1	23	180	754.102	4	Aircraft1_90%_7.jpg	0	0.9	754.102	757.826	755.261	0
11	1	23	181	758.088	4	Aircraft1_90%_8.jpg	0	0.9	758.088	761.819	758.961	0
11	1	23	182	762.085	4	rest.jpg	n/a	n/a	762.085	765.809	766.085	n/a
11	1	23	183	766.042	4	rest.jpg	n/a	n/a	766.042	769.766	770.042	n/a
11	1	23	184	770.005	4	rest.jpg	n/a	n/a	770.005	773.737	774.005	n/a
11	1	24	185	774.02	4	Aircraft2_70%_14.jpg	1	0.75	774.02	777.753	775.086	1
11	1	24	186	778.036	4	Aircraft2_70%_5.jpg	1	0.75	778.036	781.767	779.469	1
11	1	24	187	782.038	4	Aircraft2_70%_15.jpg	1	0.75	782.038	785.763	783.904	1
11	1	24	188	786.047	4	Aircraft2_70%_19.jpg	1	0.75	786.047	789.777	787.068	1
11	1	24	189	790.045	4	Aircraft1_70%_31.jpg	0	0.75	790.045	793.771	791.236	0
11	1	24	190	794.054	4	rest.jpg	n/a	n/a	794.054	797.78	798.054	n/a
11	1	24	191	798.012	4	rest.jpg	n/a	n/a	798.012	801.737	802.012	n/a
11	1	24	192	801.969	4	rest.jpg	n/a	n/a	801.969	805.693	805.969	n/a
11	1	25	193	805.977	4	Aircraft2_10%_9.jpg	1	0.1	805.977	809.703	807.033	1
11	1	25	194	809.965	4	Aircraft2_10%_6.jpg	1	0.1	809.965	813.695	810.913	1
11	1	25	195	813.978	4	Aircraft1_10%_23.jpg	0	0.1	813.978	817.71	814.852	0
11	1	25	196	817.997	4	Aircraft1_10%_21.jpg	0	0.1	817.997	821.723	819.442	0
11	1	25	197	821.995	4	Aircraft2_10%_36.jpg	1	0.1	821.995	825.726	822.792	1
11	1	25	198	825.99	4	rest.jpg	n/a	n/a	825.99	829.717	829.99	n/a
11	1	25	199	829.964	4	rest.jpg	n/a	n/a	829.964	833.696	833.964	n/a
11	1	25	200	833.928	4	rest.jpg	n/a	n/a	833.928	837.657	837.928	n/a
11	1	26	201	837.918	4	Aircraft2_90%_24.jpg	1	0.9	837.918	841.648	839.54	1
11	1	26	202	841.91	4	Aircraft2_90%_2.jpg	1	0.9	841.91	845.639	843.415	1
11	1	26	203	845.899	4	Aircraft2_90%_43.jpg	1	0.9	845.899	849.629	846.777	1
11	1	26	204	849.897	4	Aircraft2_90%_46.jpg	1	0.9	849.897	853.626	850.661	1
11	1	26	205	853.903	4	Aircraft1_90%_42.jpg	0	0.9	853.903	857.634	855.732	0
11	1	26	206	857.908	4	rest.jpg	n/a	n/a	857.908	861.634	861.908	n/a
11	1	26	207	861.867	4	rest.jpg	n/a	n/a	861.867	865.593	865.867	n/a
11	1	26	208	865.842	4	rest.jpg	n/a	n/a	865.842	869.567	869.842	n/a
11	1	27	209	869.839	4	Aircraft1_70%_3.jpg	0	0.75	869.839	873.57	871.049	0
11	1	27	210	873.86	4	Aircraft2_70%_28.jpg	1	0.75	873.86	877.586	875.24	1
11	1	27	211	877.853	4	Aircraft1_70%_24.jpg	0	0.75	877.853	881.581	878.997	0
11	1	27	212	881.846	4	Aircraft2_70%_39.jpg	1	0.75	881.846	885.573	882.812	1
11	1	27	213	885.838	4	Aircraft2_70%_8.jpg	1	0.75	885.838	889.569	887.771	1
11	1	27	214	889.832	4	rest.jpg	n/a	n/a	889.832	893.561	893.832	n/a
11	1	27	215	893.805	4	rest.jpg	n/a	n/a	893.805	897.529	897.805	n/a
11	1	27	216	897.761	4	rest.jpg	n/a	n/a	897.761	901.488	901.761	n/a
11	1	28	217	901.765	4	Aircraft1_10%_12.jpg	0	0.1	901.765	905.496	902.85	0
11	1	28	218	905.764	4	Aircraft2_10%_32.jpg	1	0.1	905.764	909.493	906.631	1
11	1	28	219	909.773	4	Aircraft2_10%_48.jpg	1	0.1	909.773	913.499	910.652	1
11	1	28	220	913.779	4	Aircraft1_10%_19.jpg	0	0.1	913.779	917.507	915.1	0
11	1	28	221	917.77	4	Aircraft1_10%_33.jpg	0	0.1	917.77	921.501	918.94	0
11	1	28	222	921.774	4	rest.jpg	n/a	n/a	921.774	925.503	925.774	n/a
11	1	28	223	925.75	4	rest.jpg	n/a	n/a	925.75	929.477	929.75	n/a
11	1	28	224	929.709	4	rest.jpg	n/a	n/a	929.709	933.439	933.709	n/a
11	1	29	225	933.712	4	Aircraft1_90%_17.jpg	0	0.9	933.712	937.438	935.371	0
11	1	29	226	937.699	4	Aircraft2_90%_42.jpg	1	0.9	937.699	941.431	939.681	1
11	1	29	227	941.692	4	Aircraft2_90%_44.jpg	1	0.9	941.692	945.421	942.64	1
11	1	29	228	945.682	4	Aircraft1_90%_10.jpg	0	0.9	945.682	949.411	947.633	0
11	1	29	229	949.69	4	Aircraft2_90%_25.jpg	1	0.9	949.69	953.418	951.743	1
11	1	29	230	953.691	4	rest.jpg	n/a	n/a	953.691	957.421	957.691	n/a
11	1	29	231	957.669	4	rest.jpg	n/a	n/a	957.669	961.4	961.669	n/a
11	1	29	232	961.637	4	rest.jpg	n/a	n/a	961.637	965.361	965.637	n/a
11	1	30	233	965.632	4	Aircraft1_70%_25.jpg	0	0.75	965.632	969.361	967.195	0
11	1	30	234	969.644	4	Aircraft2_70%_49.jpg	1	0.75	969.644	973.376	970.953	1
11	1	30	235	973.653	4	Aircraft2_70%_10.jpg	1	0.75	973.653	977.379	974.757	1
11	1	30	236	977.661	4	Aircraft2_70%_12.jpg	1	0.75	977.661	981.385	979.344	1
11	1	30	237	981.667	4	Aircraft2_70%_7.jpg	1	0.75	981.667	985.397	983.796	1
11	1	30	238	985.661	4	rest.jpg	n/a	n/a	985.661	989.39	989.661	n/a
11	1	30	239	989.628	4	rest.jpg	n/a	n/a	989.628	993.352	993.628	n/a
11	1	30	240	993.587	4	rest.jpg	n/a	n/a	993.587	997.311	997.587	n/a
