onset	duration	stim_file	stim_lable	levelOfOcclusion	stim_started	stim_stopped	key_time	key_fix	stim_started_1	stim_stopped_1	key_time_1	key_fix_1
39.997	4	Aircraft1_10%_2.jpg	0	0.1	39.997	43.734	42.672	0	39.997	43.734	42.672	0
44.018	4	Aircraft1_10%_39.jpg	0	0.1	44.018	47.756	45.919	0	44.018	47.756	45.919	0
48.026	4	Aircraft2_10%_26.jpg	1	0.1	48.026	51.759	49.623	1	48.026	51.759	49.623	1
52.05	4	Aircraft1_10%_15.jpg	0	0.1	52.05	55.787	53.775	0	52.05	55.787	53.775	0
56.08	4	Aircraft2_10%_16.jpg	1	0.1	56.08	59.812	56.932	1	56.08	59.812	56.932	1
60.097	4	rest.jpg	NaN	NaN	60.097	63.827	64.097	NaN	60.097	63.827	64.097	NaN
64.063	4	rest.jpg	NaN	NaN	64.063	67.793	68.063	NaN	64.063	67.793	68.063	NaN
68.035	4	rest.jpg	NaN	NaN	68.035	71.768	72.035	NaN	68.035	71.768	72.035	NaN
72.033	4	Aircraft2_90%_14.jpg	1	0.9	72.033	75.77	74.7	1	72.033	75.77	74.7	1
76.05	4	Aircraft2_90%_5.jpg	1	0.9	76.05	79.781	79.474	1	76.05	79.781	79.474	1
80.047	4	Aircraft2_90%_15.jpg	1	0.9	80.047	83.781	84.047	1	80.047	83.781	84.047	1
84.063	4	Aircraft2_90%_19.jpg	1	0.9	84.063	87.793	84.297	1	84.063	87.793	84.297	1
88.081	4	Aircraft1_90%_31.jpg	0	0.9	88.081	91.816	89.831	0	88.081	91.816	89.831	0
92.103	4	rest.jpg	NaN	NaN	92.103	95.836	96.103	NaN	92.103	95.836	96.103	NaN
96.083	4	rest.jpg	NaN	NaN	96.083	99.819	100.083	NaN	96.083	99.819	100.083	NaN
100.074	4	rest.jpg	NaN	NaN	100.074	103.804	104.074	NaN	100.074	103.804	104.074	NaN
104.081	4	Aircraft2_70%_4.jpg	1	0.75	104.081	107.811	106.44	1	104.081	107.811	106.44	1
108.086	4	Aircraft1_70%_43.jpg	0	0.75	108.086	111.816	110.348	0	108.086	111.816	110.348	0
112.107	4	Aircraft1_70%_9.jpg	0	0.75	112.107	115.842	114.582	0	112.107	115.842	114.582	0
116.132	4	Aircraft1_70%_11.jpg	0	0.75	116.132	119.862	118.733	0	116.132	119.862	118.733	0
120.15	4	Aircraft1_70%_50.jpg	0	0.75	120.15	123.883	122.252	0	120.15	123.883	122.252	0
124.148	4	rest.jpg	NaN	NaN	124.148	127.879	128.148	NaN	124.148	127.879	128.148	NaN
128.112	4	rest.jpg	NaN	NaN	128.112	131.849	132.112	NaN	128.112	131.849	132.112	NaN
132.1	4	rest.jpg	NaN	NaN	132.1	135.834	136.1	NaN	132.1	135.834	136.1	NaN
136.119	4	Aircraft1_10%_36.jpg	0	0.1	136.119	139.849	138.967	0	136.119	139.849	138.967	0
140.136	4	Aircraft1_10%_35.jpg	0	0.1	140.136	143.866	141.537	0	140.136	143.866	141.537	0
144.156	4	Aircraft2_10%_3.jpg	1	0.1	144.156	147.891	145.168	1	144.156	147.891	145.168	1
148.182	4	Aircraft1_10%_5.jpg	0	0.1	148.182	151.917	150.871	0	148.182	151.917	150.871	0
152.193	4	Aircraft1_10%_48.jpg	0	0.1	152.193	155.929	153.651	0	152.193	155.929	153.651	0
156.202	4	rest.jpg	NaN	NaN	156.202	159.934	160.202	NaN	156.202	159.934	160.202	NaN
160.173	4	rest.jpg	NaN	NaN	160.173	163.905	164.173	NaN	160.173	163.905	164.173	NaN
164.156	4	rest.jpg	NaN	NaN	164.156	167.892	168.156	NaN	164.156	167.892	168.156	NaN
168.163	4	Aircraft1_90%_3.jpg	0	0.9	168.163	171.898	169.517	0	168.163	171.898	169.517	0
172.184	4	Aircraft2_90%_28.jpg	1	0.9	172.184	175.921	173.84	1	172.184	175.921	173.84	1
176.207	4	Aircraft1_90%_24.jpg	0	0.9	176.207	179.942	177.411	0	176.207	179.942	177.411	0
180.226	4	Aircraft2_90%_39.jpg	1	0.9	180.226	183.958	181.884	1	180.226	183.958	181.884	1
184.226	4	Aircraft2_90%_8.jpg	1	0.9	184.226	187.958	186.692	1	184.226	187.958	186.692	1
188.229	4	rest.jpg	NaN	NaN	188.229	191.961	192.229	NaN	188.229	191.961	192.229	NaN
192.196	4	rest.jpg	NaN	NaN	192.196	195.926	196.196	NaN	192.196	195.926	196.196	NaN
196.162	4	rest.jpg	NaN	NaN	196.162	199.897	200.162	NaN	196.162	199.897	200.162	NaN
200.171	4	Aircraft2_70%_18.jpg	1	0.75	200.171	203.905	202.789	1	200.171	203.905	202.789	1
204.198	4	Aircraft1_70%_29.jpg	0	0.75	204.198	207.928	205.35	0	204.198	207.928	205.35	0
208.202	4	Aircraft2_70%_1.jpg	1	0.75	208.202	211.932	210.126	1	208.202	211.932	210.126	1
212.227	4	Aircraft1_70%_26.jpg	0	0.75	212.227	215.965	215.416	0	212.227	215.965	215.416	0
216.253	4	Aircraft2_70%_34.jpg	1	0.75	216.253	219.989	220.253	1	216.253	219.989	220.253	1
220.277	4	rest.jpg	NaN	NaN	220.277	224.01	224.277	NaN	220.277	224.01	224.277	NaN
224.243	4	rest.jpg	NaN	NaN	224.243	227.973	228.243	NaN	224.243	227.973	228.243	NaN
228.225	4	rest.jpg	NaN	NaN	228.225	231.955	232.225	NaN	228.225	231.955	232.225	NaN
232.221	4	Aircraft2_10%_17.jpg	1	0.1	232.221	235.955	234.352	1	232.221	235.955	234.352	1
236.239	4	Aircraft2_10%_11.jpg	1	0.1	236.239	239.971	238.201	1	236.239	239.971	238.201	1
240.241	4	Aircraft1_10%_20.jpg	0	0.1	240.241	243.974	242.154	0	240.241	243.974	242.154	0
244.256	4	Aircraft2_10%_47.jpg	1	0.1	244.256	247.988	245.456	1	244.256	247.988	245.456	1
248.274	4	Aircraft2_10%_45.jpg	1	0.1	248.274	252.006	250.808	1	248.274	252.006	250.808	1
252.296	4	rest.jpg	NaN	NaN	252.296	256.026	256.296	NaN	252.296	256.026	256.296	NaN
256.26	4	rest.jpg	NaN	NaN	256.26	259.997	260.26	NaN	256.26	259.997	260.26	NaN
260.232	4	rest.jpg	NaN	NaN	260.232	263.962	264.232	NaN	260.232	263.962	264.232	NaN
264.232	4	Aircraft1_90%_25.jpg	0	0.9	264.232	267.965	268.232	0	264.232	267.965	268.232	0
268.254	4	Aircraft2_90%_49.jpg	1	0.9	268.254	271.983	272.254	1	268.254	271.983	272.254	1
272.257	4	Aircraft2_90%_10.jpg	1	0.9	272.257	275.987	272.487	1	272.257	275.987	272.487	1
276.265	4	Aircraft2_90%_12.jpg	1	0.9	276.265	280	278.323	1	276.265	280	278.323	1
280.263	4	Aircraft2_90%_7.jpg	1	0.9	280.263	283.996	281.452	1	280.263	283.996	281.452	1
284.261	4	rest.jpg	NaN	NaN	284.261	287.996	288.261	NaN	284.261	287.996	288.261	NaN
288.245	4	rest.jpg	NaN	NaN	288.245	291.975	292.245	NaN	288.245	291.975	292.245	NaN
292.222	4	rest.jpg	NaN	NaN	292.222	295.955	296.222	NaN	292.222	295.955	296.222	NaN
296.239	4	Aircraft1_70%_32.jpg	0	0.75	296.239	299.969	298.588	0	296.239	299.969	298.588	0
300.257	4	Aircraft1_70%_49.jpg	0	0.75	300.257	303.992	302.33	0	300.257	303.992	302.33	0
304.273	4	Aircraft2_70%_22.jpg	1	0.75	304.273	308.006	307.37	1	304.273	308.006	307.37	1
308.272	4	Aircraft1_70%_34.jpg	0	0.75	308.272	312.002	310.912	0	308.272	312.002	310.912	0
312.29	4	Aircraft1_70%_14.jpg	0	0.75	312.29	316.022	314.264	0	312.29	316.022	314.264	0
316.285	4	rest.jpg	NaN	NaN	316.285	320.023	320.285	NaN	316.285	320.023	320.285	NaN
320.268	4	rest.jpg	NaN	NaN	320.268	324.003	324.268	NaN	320.268	324.003	324.268	NaN
324.254	4	rest.jpg	NaN	NaN	324.254	327.986	328.254	NaN	324.254	327.986	328.254	NaN
328.258	4	Aircraft1_10%_1.jpg	0	0.1	328.258	331.995	330.564	0	328.258	331.995	330.564	0
332.26	4	Aircraft1_10%_47.jpg	0	0.1	332.26	335.992	334.881	0	332.26	335.992	334.881	0
336.262	4	Aircraft1_10%_40.jpg	0	0.1	336.262	339.998	339.176	0	336.262	339.998	339.176	0
340.271	4	Aircraft1_10%_27.jpg	0	0.1	340.271	344.001	342.323	0	340.271	344.001	342.323	0
344.266	4	Aircraft2_10%_35.jpg	1	0.1	344.266	347.996	346.512	1	344.266	347.996	346.512	1
348.28	4	rest.jpg	NaN	NaN	348.28	352.013	352.28	NaN	348.28	352.013	352.28	NaN
352.245	4	rest.jpg	NaN	NaN	352.245	355.976	356.245	NaN	352.245	355.976	356.245	NaN
356.229	4	rest.jpg	NaN	NaN	356.229	359.96	360.229	NaN	356.229	359.96	360.229	NaN
360.245	4	Aircraft1_90%_32.jpg	0	0.9	360.245	363.977	362.462	0	360.245	363.977	362.462	0
364.253	4	Aircraft1_90%_49.jpg	0	0.9	364.253	367.985	367.079	0	364.253	367.985	367.079	0
368.267	4	Aircraft2_90%_22.jpg	1	0.9	368.267	372.002	370.035	1	368.267	372.002	370.035	1
372.279	4	Aircraft1_90%_34.jpg	0	0.9	372.279	376.014	373.794	0	372.279	376.014	373.794	0
376.294	4	Aircraft1_90%_14.jpg	0	0.9	376.294	380.027	378.447	0	376.294	380.027	378.447	0
380.301	4	rest.jpg	NaN	NaN	380.301	384.037	384.301	NaN	380.301	384.037	384.301	NaN
384.269	4	rest.jpg	NaN	NaN	384.269	388.005	388.269	NaN	384.269	388.005	388.269	NaN
388.238	4	rest.jpg	NaN	NaN	388.238	391.973	392.238	NaN	388.238	391.973	392.238	NaN
392.236	4	Aircraft2_70%_24.jpg	1	0.75	392.236	395.972	393.646	1	392.236	395.972	393.646	1
396.255	4	Aircraft2_70%_2.jpg	1	0.75	396.255	399.988	397.433	1	396.255	399.988	397.433	1
400.262	4	Aircraft2_70%_43.jpg	1	0.75	400.262	403.994	402.29	1	400.262	403.994	402.29	1
404.27	4	Aircraft2_70%_46.jpg	1	0.75	404.27	407.999	405.882	1	404.27	407.999	405.882	1
408.289	4	Aircraft1_70%_42.jpg	0	0.75	408.289	412.025	409.447	0	408.289	412.025	409.447	0
412.313	4	rest.jpg	NaN	NaN	412.313	416.043	416.313	NaN	412.313	416.043	416.313	NaN
416.292	4	rest.jpg	NaN	NaN	416.292	420.022	420.292	NaN	416.292	420.022	420.292	NaN
420.255	4	rest.jpg	NaN	NaN	420.255	423.988	424.255	NaN	420.255	423.988	424.255	NaN
424.283	4	Aircraft2_10%_30.jpg	1	0.1	424.283	428.019	425.806	1	424.283	428.019	425.806	1
428.301	4	Aircraft2_10%_27.jpg	1	0.1	428.301	432.031	429.486	1	428.301	432.031	429.486	1
432.306	4	Aircraft2_10%_50.jpg	1	0.1	432.306	436.038	433.391	1	432.306	436.038	433.391	1
436.313	4	Aircraft2_10%_29.jpg	1	0.1	436.313	440.048	438.002	1	436.313	440.048	438.002	1
440.321	4	Aircraft1_10%_6.jpg	0	0.1	440.321	444.051	441.653	0	440.321	444.051	441.653	0
444.334	4	rest.jpg	NaN	NaN	444.334	448.071	448.334	NaN	444.334	448.071	448.334	NaN
448.304	4	rest.jpg	NaN	NaN	448.304	452.04	452.304	NaN	448.304	452.04	452.304	NaN
452.289	4	rest.jpg	NaN	NaN	452.289	456.025	456.289	NaN	452.289	456.025	456.289	NaN
456.312	4	Aircraft2_90%_18.jpg	1	0.9	456.312	460.049	458.581	1	456.312	460.049	458.581	1
460.335	4	Aircraft1_90%_29.jpg	0	0.9	460.335	464.067	462.061	0	460.335	464.067	462.061	0
464.356	4	Aircraft2_90%_1.jpg	1	0.9	464.356	468.088	465.16	1	464.356	468.088	465.16	1
468.354	4	Aircraft1_90%_26.jpg	0	0.9	468.354	472.092	469.507	0	468.354	472.092	469.507	0
472.359	4	Aircraft2_90%_34.jpg	1	0.9	472.359	476.091	474.281	1	472.359	476.091	474.281	1
476.377	4	rest.jpg	NaN	NaN	476.377	480.112	480.377	NaN	476.377	480.112	480.377	NaN
480.346	4	rest.jpg	NaN	NaN	480.346	484.082	484.346	NaN	480.346	484.082	484.346	NaN
484.332	4	rest.jpg	NaN	NaN	484.332	488.07	488.332	NaN	484.332	488.07	488.332	NaN
488.344	4	Aircraft1_70%_17.jpg	0	0.75	488.344	492.08	490.394	0	488.344	492.08	490.394	0
492.369	4	Aircraft2_70%_42.jpg	1	0.75	492.369	496.102	493.223	1	492.369	496.102	493.223	1
496.392	4	Aircraft2_70%_44.jpg	1	0.75	496.392	500.124	497.228	1	496.392	500.124	497.228	1
500.416	4	Aircraft1_70%_10.jpg	0	0.75	500.416	504.154	501.275	0	500.416	504.154	501.275	0
504.444	4	Aircraft2_70%_25.jpg	1	0.75	504.444	508.173	505.284	1	504.444	508.173	505.284	1
508.441	4	rest.jpg	NaN	NaN	508.441	512.172	512.441	NaN	508.441	512.172	512.441	NaN
512.416	4	rest.jpg	NaN	NaN	512.416	516.154	516.416	NaN	512.416	516.154	516.416	NaN
516.402	4	rest.jpg	NaN	NaN	516.402	520.134	520.402	NaN	516.402	520.134	520.402	NaN
520.427	4	Aircraft1_10%_38.jpg	0	0.1	520.427	524.159	522.08	0	520.427	524.159	522.08	0
524.436	4	Aircraft2_10%_21.jpg	1	0.1	524.436	528.169	525.164	1	524.436	528.169	525.164	1
528.465	4	Aircraft1_10%_16.jpg	0	0.1	528.465	532.196	529.395	0	528.465	532.196	529.395	0
532.472	4	Aircraft1_10%_46.jpg	0	0.1	532.472	536.202	534.446	0	532.472	536.202	534.446	0
536.485	4	Aircraft2_10%_40.jpg	1	0.1	536.485	540.22	537.593	1	536.485	540.22	537.593	1
540.49	4	rest.jpg	NaN	NaN	540.49	544.224	544.49	NaN	540.49	544.224	544.49	NaN
544.471	4	rest.jpg	NaN	NaN	544.471	548.208	548.471	NaN	544.471	548.208	548.471	NaN
548.44	4	rest.jpg	NaN	NaN	548.44	552.172	552.44	NaN	548.44	552.172	552.44	NaN
552.458	4	Aircraft2_90%_4.jpg	1	0.9	552.458	556.195	554.058	1	552.458	556.195	554.058	1
556.477	4	Aircraft1_90%_43.jpg	0	0.9	556.477	560.207	557.439	0	556.477	560.207	557.439	0
560.473	4	Aircraft1_90%_9.jpg	0	0.9	560.473	564.211	561.891	0	560.473	564.211	561.891	0
564.478	4	Aircraft1_90%_11.jpg	0	0.9	564.478	568.215	565.347	0	564.478	568.215	565.347	0
568.502	4	Aircraft1_90%_50.jpg	0	0.9	568.502	572.237	569.478	0	568.502	572.237	569.478	0
572.507	4	rest.jpg	NaN	NaN	572.507	576.238	576.507	NaN	572.507	576.238	576.507	NaN
576.486	4	rest.jpg	NaN	NaN	576.486	580.221	580.486	NaN	576.486	580.221	580.486	NaN
580.451	4	rest.jpg	NaN	NaN	580.451	584.183	584.451	NaN	580.451	584.183	584.451	NaN
584.452	4	Aircraft1_70%_12.jpg	0	0.75	584.452	588.188	585.822	0	584.452	588.188	585.822	0
588.456	4	Aircraft2_70%_32.jpg	1	0.75	588.456	592.192	589.885	1	588.456	592.192	589.885	1
592.454	4	Aircraft2_70%_48.jpg	1	0.75	592.454	596.19	594.182	1	592.454	596.19	594.182	1
596.457	4	Aircraft1_70%_19.jpg	0	0.75	596.457	600.193	597.804	0	596.457	600.193	597.804	0
600.461	4	Aircraft1_70%_33.jpg	0	0.75	600.461	604.194	602.661	0	600.461	604.194	602.661	0
604.459	4	rest.jpg	NaN	NaN	604.459	608.196	608.459	NaN	604.459	608.196	608.459	NaN
608.441	4	rest.jpg	NaN	NaN	608.441	612.177	612.441	NaN	608.441	612.177	612.441	NaN
612.424	4	rest.jpg	NaN	NaN	612.424	616.16	616.424	NaN	612.424	616.16	616.424	NaN
616.447	4	Aircraft2_10%_23.jpg	1	0.1	616.447	620.182	618.16	1	616.447	620.182	618.16	1
620.447	4	Aircraft1_10%_28.jpg	0	0.1	620.447	624.179	621.784	0	620.447	624.179	621.784	0
624.446	4	Aircraft2_10%_13.jpg	1	0.1	624.446	628.179	625.806	1	624.446	628.179	625.806	1
628.455	4	Aircraft1_10%_45.jpg	0	0.1	628.455	632.19	629.59	0	628.455	632.19	629.59	0
632.459	4	Aircraft1_10%_37.jpg	0	0.1	632.459	636.19	633.958	0	632.459	636.19	633.958	0
636.466	4	rest.jpg	NaN	NaN	636.466	640.203	640.466	NaN	636.466	640.203	640.466	NaN
640.449	4	rest.jpg	NaN	NaN	640.449	644.181	644.449	NaN	640.449	644.181	644.449	NaN
644.412	4	rest.jpg	NaN	NaN	644.412	648.142	648.412	NaN	644.412	648.142	648.412	NaN
648.403	4	Aircraft2_90%_33.jpg	1	0.9	648.403	652.138	650.119	1	648.403	652.138	650.119	1
652.397	4	Aircraft2_90%_38.jpg	1	0.9	652.397	656.129	653.46	1	652.397	656.129	653.46	1
656.41	4	Aircraft1_90%_30.jpg	0	0.9	656.41	660.142	657.611	0	656.41	660.142	657.611	0
660.421	4	Aircraft1_90%_41.jpg	0	0.9	660.421	664.152	662.104	0	660.421	664.152	662.104	0
664.434	4	Aircraft1_90%_18.jpg	0	0.9	664.434	668.169	666.009	0	664.434	668.169	666.009	0
668.447	4	rest.jpg	NaN	NaN	668.447	672.184	672.447	NaN	668.447	672.184	672.447	NaN
672.416	4	rest.jpg	NaN	NaN	672.416	676.151	676.416	NaN	672.416	676.151	676.416	NaN
676.383	4	rest.jpg	NaN	NaN	676.383	680.114	680.383	NaN	676.383	680.114	680.383	NaN
680.379	4	Aircraft2_70%_9.jpg	1	0.75	680.379	684.111	682.247	1	680.379	684.111	682.247	1
684.391	4	Aircraft2_70%_6.jpg	1	0.75	684.391	688.126	685.959	1	684.391	688.126	685.959	1
688.392	4	Aircraft1_70%_23.jpg	0	0.75	688.392	692.122	691.258	0	688.392	692.122	691.258	0
692.407	4	Aircraft1_70%_21.jpg	0	0.75	692.407	696.144	693.366	0	692.407	696.144	693.366	0
696.43	4	Aircraft2_70%_36.jpg	1	0.75	696.43	700.165	697.982	1	696.43	700.165	697.982	1
700.429	4	rest.jpg	NaN	NaN	700.429	704.159	704.429	NaN	700.429	704.159	704.429	NaN
704.391	4	rest.jpg	NaN	NaN	704.391	708.121	708.391	NaN	704.391	708.121	708.391	NaN
708.356	4	rest.jpg	NaN	NaN	708.356	712.085	712.356	NaN	708.356	712.085	712.356	NaN
712.366	4	Aircraft2_10%_41.jpg	1	0.1	712.366	716.101	713.653	1	712.366	716.101	713.653	1
716.384	4	Aircraft1_10%_22.jpg	0	0.1	716.384	720.114	717.39	0	716.384	720.114	717.39	0
720.396	4	Aircraft1_10%_44.jpg	0	0.1	720.396	724.132	722.039	0	720.396	724.132	722.039	0
724.416	4	Aircraft1_10%_1.jpg	0	0.1	724.416	728.149	725.585	0	724.416	728.149	725.585	0
728.435	4	Aircraft2_10%_37.jpg	1	0.1	728.435	732.167	729.327	1	728.435	732.167	729.327	1
732.456	4	rest.jpg	NaN	NaN	732.456	736.186	736.456	NaN	732.456	736.186	736.456	NaN
736.436	4	rest.jpg	NaN	NaN	736.436	740.168	740.436	NaN	736.436	740.168	740.436	NaN
740.402	4	rest.jpg	NaN	NaN	740.402	744.137	744.402	NaN	740.402	744.137	744.402	NaN
744.422	4	Aircraft2_90%_31.jpg	1	0.9	744.422	748.151	746.624	1	744.422	748.151	746.624	1
748.433	4	Aircraft1_90%_4.jpg	0	0.9	748.433	752.169	750.483	0	748.433	752.169	750.483	0
752.434	4	Aircraft2_90%_20.jpg	1	0.9	752.434	756.171	753.513	1	752.434	756.171	753.513	1
756.454	4	Aircraft1_90%_7.jpg	0	0.9	756.454	760.191	758.045	0	756.454	760.191	758.045	0
760.458	4	Aircraft1_90%_8.jpg	0	0.9	760.458	764.194	762.867	0	760.458	764.194	762.867	0
764.474	4	rest.jpg	NaN	NaN	764.474	768.206	768.474	NaN	764.474	768.206	768.474	NaN
768.443	4	rest.jpg	NaN	NaN	768.443	772.173	772.443	NaN	768.443	772.173	772.443	NaN
772.406	4	rest.jpg	NaN	NaN	772.406	776.137	776.406	NaN	772.406	776.137	776.406	NaN
776.411	4	Aircraft2_70%_14.jpg	1	0.75	776.411	780.147	777.73	1	776.411	780.147	777.73	1
780.434	4	Aircraft2_70%_5.jpg	1	0.75	780.434	784.164	781.609	1	780.434	784.164	781.609	1
784.453	4	Aircraft2_70%_15.jpg	1	0.75	784.453	788.19	785.267	1	784.453	788.19	785.267	1
788.471	4	Aircraft2_70%_19.jpg	1	0.75	788.471	792.206	789.239	1	788.471	792.206	789.239	1
792.496	4	Aircraft1_70%_31.jpg	0	0.75	792.496	796.226	794.546	0	792.496	796.226	794.546	0
796.496	4	rest.jpg	NaN	NaN	796.496	800.232	800.496	NaN	796.496	800.232	800.496	NaN
800.483	4	rest.jpg	NaN	NaN	800.483	804.215	804.483	NaN	800.483	804.215	804.483	NaN
804.46	4	rest.jpg	NaN	NaN	804.46	808.192	808.46	NaN	804.46	808.192	808.46	NaN
808.467	4	Aircraft2_10%_9.jpg	1	0.1	808.467	812.204	809.319	1	808.467	812.204	809.319	1
812.473	4	Aircraft2_10%_6.jpg	1	0.1	812.473	816.21	813.228	1	812.473	816.21	813.228	1
816.484	4	Aircraft1_10%_23.jpg	0	0.1	816.484	820.217	817.249	0	816.484	820.217	817.249	0
820.49	4	Aircraft1_10%_21.jpg	0	0.1	820.49	824.226	821.349	0	820.49	824.226	821.349	0
824.495	4	Aircraft2_10%_36.jpg	1	0.1	824.495	828.23	826.174	1	824.495	828.23	826.174	1
828.519	4	rest.jpg	NaN	NaN	828.519	832.254	832.519	NaN	828.519	832.254	832.519	NaN
832.488	4	rest.jpg	NaN	NaN	832.488	836.223	836.488	NaN	832.488	836.223	836.488	NaN
836.468	4	rest.jpg	NaN	NaN	836.468	840.204	840.468	NaN	836.468	840.204	840.468	NaN
840.489	4	Aircraft2_90%_24.jpg	1	0.9	840.489	844.219	842.286	1	840.489	844.219	842.286	1
844.486	4	Aircraft2_90%_2.jpg	1	0.9	844.486	848.218	845.499	1	844.486	848.218	845.499	1
848.483	4	Aircraft2_90%_43.jpg	1	0.9	848.483	852.219	849.578	1	848.483	852.219	849.578	1
852.501	4	Aircraft2_90%_46.jpg	1	0.9	852.501	856.231	854.531	1	852.501	856.231	854.531	1
856.498	4	Aircraft1_90%_42.jpg	0	0.9	856.498	860.229	857.415	0	856.498	860.229	857.415	0
860.518	4	rest.jpg	NaN	NaN	860.518	864.248	864.518	NaN	860.518	864.248	864.518	NaN
864.497	4	rest.jpg	NaN	NaN	864.497	868.228	868.497	NaN	864.497	868.228	868.497	NaN
868.474	4	rest.jpg	NaN	NaN	868.474	872.207	872.474	NaN	868.474	872.207	872.474	NaN
872.5	4	Aircraft1_70%_3.jpg	0	0.75	872.5	876.232	874.183	0	872.5	876.232	874.183	0
876.505	4	Aircraft2_70%_28.jpg	1	0.75	876.505	880.235	878.321	1	876.505	880.235	878.321	1
880.52	4	Aircraft1_70%_24.jpg	0	0.75	880.52	884.252	882.445	0	880.52	884.252	882.445	0
884.522	4	Aircraft2_70%_39.jpg	1	0.75	884.522	888.259	885.516	1	884.522	888.259	885.516	1
888.532	4	Aircraft2_70%_8.jpg	1	0.75	888.532	892.268	889.416	1	888.532	892.268	889.416	1
892.553	4	rest.jpg	NaN	NaN	892.553	896.285	896.553	NaN	892.553	896.285	896.553	NaN
896.534	4	rest.jpg	NaN	NaN	896.534	900.267	900.534	NaN	896.534	900.267	900.534	NaN
900.512	4	rest.jpg	NaN	NaN	900.512	904.242	904.512	NaN	900.512	904.242	904.512	NaN
904.526	4	Aircraft1_10%_12.jpg	0	0.1	904.526	908.258	906.404	0	904.526	908.258	906.404	0
908.526	4	Aircraft2_10%_32.jpg	1	0.1	908.526	912.256	909.344	1	908.526	912.256	909.344	1
912.544	4	Aircraft2_10%_48.jpg	1	0.1	912.544	916.276	914.189	1	912.544	916.276	914.189	1
916.556	4	Aircraft1_10%_19.jpg	0	0.1	916.556	920.293	918.059	0	916.556	920.293	918.059	0
920.577	4	Aircraft1_10%_33.jpg	0	0.1	920.577	924.307	921.92	0	920.577	924.307	921.92	0
924.571	4	rest.jpg	NaN	NaN	924.571	928.301	928.571	NaN	924.571	928.301	928.571	NaN
928.533	4	rest.jpg	NaN	NaN	928.533	932.265	932.533	NaN	928.533	932.265	932.533	NaN
932.514	4	rest.jpg	NaN	NaN	932.514	936.25	936.514	NaN	932.514	936.25	936.514	NaN
936.512	4	Aircraft1_90%_17.jpg	0	0.9	936.512	940.249	937.915	0	936.512	940.249	937.915	0
940.529	4	Aircraft2_90%_42.jpg	1	0.9	940.529	944.267	942.156	1	940.529	944.267	942.156	1
944.549	4	Aircraft2_90%_44.jpg	1	0.9	944.549	948.285	945.621	1	944.549	948.285	945.621	1
948.548	4	Aircraft1_90%_10.jpg	0	0.9	948.548	952.278	949.496	0	948.548	952.278	949.496	0
952.537	4	Aircraft2_90%_25.jpg	1	0.9	952.537	956.274	953.699	1	952.537	956.274	953.699	1
956.551	4	rest.jpg	NaN	NaN	956.551	960.284	960.551	NaN	956.551	960.284	960.551	NaN
960.516	4	rest.jpg	NaN	NaN	960.516	964.249	964.516	NaN	960.516	964.249	964.516	NaN
964.48	4	rest.jpg	NaN	NaN	964.48	968.217	968.48	NaN	964.48	968.217	968.48	NaN
968.48	4	Aircraft1_70%_25.jpg	0	0.75	968.48	972.216	969.966	0	968.48	972.216	969.966	0
972.479	4	Aircraft2_70%_49.jpg	1	0.75	972.479	976.21	974.717	1	972.479	976.21	974.717	1
976.473	4	Aircraft2_70%_10.jpg	1	0.75	976.473	980.209	977.496	1	976.473	980.209	977.496	1
980.476	4	Aircraft2_70%_12.jpg	1	0.75	980.476	984.205	981.274	1	980.476	984.205	981.274	1
984.486	4	Aircraft2_70%_7.jpg	1	0.75	984.486	988.221	986.361	1	984.486	988.221	986.361	1
988.5	4	rest.jpg	NaN	NaN	988.5	992.233	992.5	NaN	988.5	992.233	992.5	NaN
992.465	4	rest.jpg	NaN	NaN	992.465	996.195	996.465	NaN	992.465	996.195	996.465	NaN
996.425	4	rest.jpg	NaN	NaN	996.425	1000.161	1000.425	NaN	996.425	1000.161	1000.425	NaN
