onset	duration	stim_file	stim_lable	levelOfOcclusion	stim_started	stim_stopped	key_time	key_fix	stim_started_1	stim_stopped_1	key_time_1	key_fix_1
40.073	4	Aircraft1_10%_17.jpg	0	0.1	40.073	43.804	41.009	0	40.073	43.804	41.009	0
44.134	4	Aircraft2_10%_42.jpg	1	0.1	44.134	47.863	44.778	1	44.134	47.863	44.778	1
48.174	4	Aircraft2_10%_44.jpg	1	0.1	48.174	51.904	48.897	1	48.174	51.904	48.897	1
52.219	4	Aircraft1_10%_10.jpg	0	0.1	52.219	55.95	52.817	0	52.219	55.95	52.817	0
56.253	4	Aircraft2_10%_25.jpg	1	0.1	56.253	59.988	56.975	1	56.253	59.988	56.975	1
60.307	4	rest.jpg	NaN	NaN	60.307	64.042	64.307	NaN	60.307	64.042	64.307	NaN
64.274	4	rest.jpg	NaN	NaN	64.274	68.003	68.274	NaN	64.274	68.003	68.274	NaN
68.239	4	rest.jpg	NaN	NaN	68.239	71.968	72.239	NaN	68.239	71.968	72.239	NaN
72.262	4	Aircraft1_90%_12.jpg	0	0.9	72.262	75.991	74.208	0	72.262	75.991	74.208	0
76.265	4	Aircraft2_90%_32.jpg	1	0.9	76.265	79.997	77.662	1	76.265	79.997	77.662	1
80.31	4	Aircraft2_90%_48.jpg	1	0.9	80.31	84.041	81.895	1	80.31	84.041	81.895	1
84.311	4	Aircraft1_90%_19.jpg	0	0.9	84.311	88.042	85.274	0	84.311	88.042	85.274	0
88.33	4	Aircraft1_90%_33.jpg	0	0.9	88.33	92.061	89.365	0	88.33	92.061	89.365	0
92.352	4	rest.jpg	NaN	NaN	92.352	96.08	96.352	NaN	92.352	96.08	96.352	NaN
96.313	4	rest.jpg	NaN	NaN	96.313	100.042	100.313	NaN	96.313	100.042	100.313	NaN
100.279	4	rest.jpg	NaN	NaN	100.279	104.015	104.279	NaN	100.279	104.015	104.279	NaN
104.291	4	Aircraft2_70%_33.jpg	1	0.75	104.291	108.027	105.765	1	104.291	108.027	105.765	1
108.302	4	Aircraft2_70%_38.jpg	1	0.75	108.302	112.031	109.127	1	108.302	112.031	109.127	1
112.345	4	Aircraft1_70%_30.jpg	0	0.75	112.345	116.074	113.378	0	112.345	116.074	113.378	0
116.352	4	Aircraft1_70%_41.jpg	0	0.75	116.352	120.082	117.491	0	116.352	120.082	117.491	0
120.39	4	Aircraft1_70%_18.jpg	0	0.75	120.39	124.121	121.927	0	120.39	124.121	121.927	0
124.393	4	rest.jpg	NaN	NaN	124.393	128.122	128.393	NaN	124.393	128.122	128.393	NaN
128.355	4	rest.jpg	NaN	NaN	128.355	132.091	132.355	NaN	128.355	132.091	132.355	NaN
132.323	4	rest.jpg	NaN	NaN	132.323	136.057	136.323	NaN	132.323	136.057	136.323	NaN
136.333	4	Aircraft2_10%_24.jpg	1	0.1	136.333	140.069	137.543	1	136.333	140.069	137.543	1
140.376	4	Aircraft2_10%_2.jpg	1	0.1	140.376	144.105	140.959	1	140.376	144.105	140.959	1
144.382	4	Aircraft2_10%_43.jpg	1	0.1	144.382	148.113	145.117	1	144.382	148.113	145.117	1
148.39	4	Aircraft2_10%_46.jpg	1	0.1	148.39	152.125	149.138	1	148.39	152.125	149.138	1
152.399	4	Aircraft1_10%_42.jpg	0	0.1	152.399	156.128	153.166	0	152.399	156.128	153.166	0
156.4	4	rest.jpg	NaN	NaN	156.4	160.134	160.4	NaN	156.4	160.134	160.4	NaN
160.373	4	rest.jpg	NaN	NaN	160.373	164.103	164.373	NaN	160.373	164.103	164.373	NaN
164.353	4	rest.jpg	NaN	NaN	164.353	168.082	168.353	NaN	164.353	168.082	168.353	NaN
168.371	4	Aircraft2_90%_9.jpg	1	0.9	168.371	172.103	169.943	1	168.371	172.103	169.943	1
172.379	4	Aircraft2_90%_6.jpg	1	0.9	172.379	176.11	173.428	1	172.379	176.11	173.428	1
176.42	4	Aircraft1_90%_23.jpg	0	0.9	176.42	180.156	177.516	0	176.42	180.156	177.516	0
180.464	4	Aircraft1_90%_21.jpg	0	0.9	180.464	184.195	181.114	0	180.464	184.195	181.114	0
184.521	4	Aircraft2_90%_36.jpg	1	0.9	184.521	188.25	185.229	1	184.521	188.25	185.229	1
188.525	4	rest.jpg	NaN	NaN	188.525	192.254	192.525	NaN	188.525	192.254	192.525	NaN
192.488	4	rest.jpg	NaN	NaN	192.488	196.217	196.488	NaN	192.488	196.217	196.488	NaN
196.467	4	rest.jpg	NaN	NaN	196.467	200.196	200.467	NaN	196.467	200.196	200.467	NaN
200.491	4	Aircraft2_70%_31.jpg	1	0.75	200.491	204.227	202.057	1	200.491	204.227	202.057	1
204.502	4	Aircraft1_70%_4.jpg	0	0.75	204.502	208.237	205.11	0	204.502	208.237	205.11	0
208.534	4	Aircraft2_70%_20.jpg	1	0.75	208.534	212.263	209.766	1	208.534	212.263	209.766	1
212.572	4	Aircraft1_70%_7.jpg	0	0.75	212.572	216.301	213.378	0	212.572	216.301	213.378	0
216.71	4	Aircraft1_70%_8.jpg	0	0.75	216.71	220.442	217.272	0	216.71	220.442	217.272	0
220.718	4	rest.jpg	NaN	NaN	220.718	224.453	224.718	NaN	220.718	224.453	224.718	NaN
224.701	4	rest.jpg	NaN	NaN	224.701	228.432	228.701	NaN	224.701	228.432	228.701	NaN
228.678	4	rest.jpg	NaN	NaN	228.678	232.408	232.678	NaN	228.678	232.408	232.678	NaN
232.688	4	Aircraft2_10%_31.jpg	1	0.1	232.688	236.417	233.539	1	232.688	236.417	233.539	1
236.693	4	Aircraft1_10%_4.jpg	0	0.1	236.693	240.427	237.488	0	236.693	240.427	237.488	0
240.72	4	Aircraft2_10%_20.jpg	1	0.1	240.72	244.455	241.713	1	240.72	244.455	241.713	1
244.764	4	Aircraft1_10%_7.jpg	0	0.1	244.764	248.493	245.531	0	244.764	248.493	245.531	0
248.772	4	Aircraft1_10%_8.jpg	0	0.1	248.772	252.501	249.392	0	248.772	252.501	249.392	0
252.776	4	rest.jpg	NaN	NaN	252.776	256.506	256.776	NaN	252.776	256.506	256.776	NaN
256.753	4	rest.jpg	NaN	NaN	256.753	260.482	260.753	NaN	256.753	260.482	260.753	NaN
260.716	4	rest.jpg	NaN	NaN	260.716	264.452	264.716	NaN	260.716	264.452	264.716	NaN
264.722	4	Aircraft2_90%_41.jpg	1	0.9	264.722	268.453	266.941	1	264.722	268.453	266.941	1
268.768	4	Aircraft1_90%_22.jpg	0	0.9	268.768	272.497	269.352	0	268.768	272.497	269.352	0
272.764	4	Aircraft1_90%_44.jpg	0	0.9	272.764	276.499	273.477	0	272.764	276.499	273.477	0
277.038	4	Aircraft1_90%_1.jpg	0	0.9	277.038	280.772	277.607	0	277.038	280.772	277.607	0
281.063	4	Aircraft2_90%_37.jpg	1	0.9	281.063	284.795	282.059	1	281.063	284.795	282.059	1
285.067	4	rest.jpg	NaN	NaN	285.067	288.796	289.067	NaN	285.067	288.796	289.067	NaN
289.03	4	rest.jpg	NaN	NaN	289.03	292.762	293.03	NaN	289.03	292.762	293.03	NaN
293.011	4	rest.jpg	NaN	NaN	293.011	296.742	297.011	NaN	293.011	296.742	297.011	NaN
297.048	4	Aircraft2_70%_41.jpg	1	0.75	297.048	300.777	298.604	1	297.048	300.777	298.604	1
301.084	4	Aircraft1_70%_22.jpg	0	0.75	301.084	304.812	301.886	0	301.084	304.812	301.886	0
305.118	4	Aircraft1_70%_44.jpg	0	0.75	305.118	308.847	305.7	0	305.118	308.847	305.7	0
309.121	4	Aircraft1_70%_1.jpg	0	0.75	309.121	312.853	309.691	0	309.121	312.853	309.691	0
313.131	4	Aircraft2_70%_37.jpg	1	0.75	313.131	316.861	314.099	1	313.131	316.861	314.099	1
317.15	4	rest.jpg	NaN	NaN	317.15	320.885	321.15	NaN	317.15	320.885	321.15	NaN
321.119	4	rest.jpg	NaN	NaN	321.119	324.848	325.119	NaN	321.119	324.848	325.119	NaN
325.082	4	rest.jpg	NaN	NaN	325.082	328.811	329.082	NaN	325.082	328.811	329.082	NaN
329.087	4	Aircraft2_10%_33.jpg	1	0.1	329.087	332.816	330.069	1	329.087	332.816	330.069	1
333.128	4	Aircraft2_10%_38.jpg	1	0.1	333.128	336.858	333.992	1	333.128	336.858	333.992	1
337.135	4	Aircraft1_10%_30.jpg	0	0.1	337.135	340.868	337.816	0	337.135	340.868	337.816	0
341.146	4	Aircraft1_10%_41.jpg	0	0.1	341.146	344.877	342.372	0	341.146	344.877	342.372	0
345.168	4	Aircraft1_10%_18.jpg	0	0.1	345.168	348.897	345.844	0	345.168	348.897	345.844	0
349.186	4	rest.jpg	NaN	NaN	349.186	352.915	353.186	NaN	349.186	352.915	353.186	NaN
353.149	4	rest.jpg	NaN	NaN	353.149	356.883	357.149	NaN	353.149	356.883	357.149	NaN
357.117	4	rest.jpg	NaN	NaN	357.117	360.852	361.117	NaN	357.117	360.852	361.117	NaN
361.146	4	Aircraft2_90%_23.jpg	1	0.9	361.146	364.877	362.611	1	361.146	364.877	362.611	1
365.205	4	Aircraft1_90%_28.jpg	0	0.9	365.205	368.934	366.11	0	365.205	368.934	366.11	0
369.202	4	Aircraft2_90%_13.jpg	1	0.9	369.202	372.937	370.235	1	369.202	372.937	370.235	1
373.246	4	Aircraft1_90%_45.jpg	0	0.9	373.246	376.979	374.02	0	373.246	376.979	374.02	0
377.287	4	Aircraft1_90%_37.jpg	0	0.9	377.287	381.022	377.874	0	377.287	381.022	377.874	0
381.311	4	rest.jpg	NaN	NaN	381.311	385.047	385.311	NaN	381.311	385.047	385.311	NaN
385.295	4	rest.jpg	NaN	NaN	385.295	389.024	389.295	NaN	385.295	389.024	389.295	NaN
389.274	4	rest.jpg	NaN	NaN	389.274	393.005	393.274	NaN	389.274	393.005	393.274	NaN
393.324	4	Aircraft1_70%_2.jpg	0	0.75	393.324	397.055	393.948	0	393.324	397.055	393.948	0
397.366	4	Aircraft1_70%_39.jpg	0	0.75	397.366	401.095	397.889	0	397.366	401.095	397.889	0
401.375	4	Aircraft2_70%_26.jpg	1	0.75	401.375	405.11	402.216	1	401.375	405.11	402.216	1
405.444	4	Aircraft1_70%_15.jpg	0	0.75	405.444	409.173	406.618	0	405.444	409.173	406.618	0
409.488	4	Aircraft2_70%_16.jpg	1	0.75	409.488	413.217	410.677	1	409.488	413.217	410.677	1
413.504	4	rest.jpg	NaN	NaN	413.504	417.233	417.504	NaN	413.504	417.233	417.504	NaN
417.482	4	rest.jpg	NaN	NaN	417.482	421.213	421.482	NaN	417.482	421.213	421.482	NaN
421.447	4	rest.jpg	NaN	NaN	421.447	425.176	425.447	NaN	421.447	425.176	425.447	NaN
425.452	4	Aircraft2_10%_4.jpg	1	0.1	425.452	429.187	426.513	1	425.452	429.187	426.513	1
429.503	4	Aircraft1_10%_43.jpg	0	0.1	429.503	433.239	431.204	0	429.503	433.239	431.204	0
433.55	4	Aircraft1_10%_9.jpg	0	0.1	433.55	437.286	434.079	0	433.55	437.286	434.079	0
437.601	4	Aircraft1_10%_11.jpg	0	0.1	437.601	441.337	438.213	0	437.601	441.337	438.213	0
441.656	4	Aircraft1_10%_50.jpg	0	0.1	441.656	445.386	442.193	0	441.656	445.386	442.193	0
445.67	4	rest.jpg	NaN	NaN	445.67	449.399	449.67	NaN	445.67	449.399	449.67	NaN
449.631	4	rest.jpg	NaN	NaN	449.631	453.36	453.631	NaN	449.631	453.36	453.631	NaN
453.604	4	rest.jpg	NaN	NaN	453.604	457.333	457.604	NaN	453.604	457.333	457.604	NaN
457.603	4	Aircraft1_90%_38.jpg	0	0.9	457.603	461.334	458.556	0	457.603	461.334	458.556	0
461.628	4	Aircraft2_90%_21.jpg	1	0.9	461.628	465.363	463.385	1	461.628	465.363	463.385	1
465.67	4	Aircraft1_90%_16.jpg	0	0.9	465.67	469.4	466.775	0	465.67	469.4	466.775	0
469.722	4	Aircraft1_90%_46.jpg	0	0.9	469.722	473.451	470.429	0	469.722	473.451	470.429	0
473.744	4	Aircraft2_90%_40.jpg	1	0.9	473.744	477.479	474.612	1	473.744	477.479	474.612	1
477.756	4	rest.jpg	NaN	NaN	477.756	481.489	481.756	NaN	477.756	481.489	481.756	NaN
481.721	4	rest.jpg	NaN	NaN	481.721	485.453	485.721	NaN	481.721	485.453	485.721	NaN
485.702	4	rest.jpg	NaN	NaN	485.702	489.438	489.702	NaN	485.702	489.438	489.702	NaN
489.71	4	Aircraft1_70%_36.jpg	0	0.75	489.71	493.442	491.118	0	489.71	493.442	491.118	0
493.718	4	Aircraft1_70%_35.jpg	0	0.75	493.718	497.454	494.227	0	493.718	497.454	494.227	0
497.771	4	Aircraft2_70%_3.jpg	1	0.75	497.771	501.503	498.514	1	497.771	501.503	498.514	1
501.797	4	Aircraft1_70%_5.jpg	0	0.75	501.797	505.532	502.528	0	501.797	505.532	502.528	0
505.807	4	Aircraft1_70%_48.jpg	0	0.75	505.807	509.54	506.432	0	505.807	509.54	506.432	0
509.812	4	rest.jpg	NaN	NaN	509.812	513.547	513.812	NaN	509.812	513.547	513.812	NaN
513.78	4	rest.jpg	NaN	NaN	513.78	517.515	517.78	NaN	513.78	517.515	517.78	NaN
517.748	4	rest.jpg	NaN	NaN	517.748	521.477	521.748	NaN	517.748	521.477	521.748	NaN
521.775	4	Aircraft2_10%_18.jpg	1	0.1	521.775	525.511	522.751	1	521.775	525.511	522.751	1
525.793	4	Aircraft1_10%_29.jpg	0	0.1	525.793	529.522	526.537	0	525.793	529.522	526.537	0
529.805	4	Aircraft2_10%_1.jpg	1	0.1	529.805	533.535	530.579	1	529.805	533.535	530.579	1
533.842	4	Aircraft1_10%_26.jpg	0	0.1	533.842	537.571	534.42	0	533.842	537.571	534.42	0
537.865	4	Aircraft2_10%_34.jpg	1	0.1	537.865	541.602	538.613	1	537.865	541.602	538.613	1
541.892	4	rest.jpg	NaN	NaN	541.892	545.626	545.892	NaN	541.892	545.626	545.892	NaN
545.86	4	rest.jpg	NaN	NaN	545.86	549.588	549.86	NaN	545.86	549.588	549.86	NaN
549.82	4	rest.jpg	NaN	NaN	549.82	553.549	553.82	NaN	549.82	553.549	553.82	NaN
553.88	4	Aircraft2_90%_30.jpg	1	0.9	553.88	557.609	555.011	1	553.88	557.609	555.011	1
557.913	4	Aircraft2_90%_27.jpg	1	0.9	557.913	561.642	558.65	1	557.913	561.642	558.65	1
561.909	4	Aircraft2_90%_50.jpg	1	0.9	561.909	565.64	564.409	1	561.909	565.64	564.409	1
565.943	4	Aircraft2_90%_29.jpg	1	0.9	565.943	569.673	567.809	1	565.943	569.673	567.809	1
569.965	4	Aircraft1_90%_6.jpg	0	0.9	569.965	573.699	570.87	0	569.965	573.699	570.87	0
573.971	4	rest.jpg	NaN	NaN	573.971	577.701	577.971	NaN	573.971	577.701	577.971	NaN
577.935	4	rest.jpg	NaN	NaN	577.935	581.672	578.788	NaN	577.935	581.672	578.788	NaN
581.909	4	rest.jpg	NaN	NaN	581.909	585.639	585.909	NaN	581.909	585.639	585.909	NaN
585.908	4	Aircraft2_70%_17.jpg	1	0.75	585.908	589.637	588.015	1	585.908	589.637	588.015	1
589.937	4	Aircraft2_70%_11.jpg	1	0.75	589.937	593.667	590.651	1	589.937	593.667	590.651	1
593.938	4	Aircraft1_70%_20.jpg	0	0.75	593.938	597.668	594.787	0	593.938	597.668	594.787	0
597.976	4	Aircraft2_70%_47.jpg	1	0.75	597.976	601.707	598.921	1	597.976	601.707	598.921	1
601.982	4	Aircraft2_70%_45.jpg	1	0.75	601.982	605.722	602.807	1	601.982	605.722	602.807	1
605.993	4	rest.jpg	NaN	NaN	605.993	609.73	609.993	NaN	605.993	609.73	609.993	NaN
609.964	4	rest.jpg	NaN	NaN	609.964	613.697	613.964	NaN	609.964	613.697	613.964	NaN
613.931	4	rest.jpg	NaN	NaN	613.931	617.66	617.931	NaN	613.931	617.66	617.931	NaN
617.971	4	Aircraft1_10%_32.jpg	0	0.1	617.971	621.7	618.984	0	617.971	621.7	618.984	0
622.034	4	Aircraft1_10%_49.jpg	0	0.1	622.034	625.767	623.192	0	622.034	625.767	623.192	0
626.091	4	Aircraft2_10%_22.jpg	1	0.1	626.091	629.825	626.752	1	626.091	629.825	626.752	1
630.133	4	Aircraft1_10%_34.jpg	0	0.1	630.133	633.862	630.937	0	630.133	633.862	630.937	0
634.206	4	Aircraft1_10%_14.jpg	0	0.1	634.206	637.935	634.841	0	634.206	637.935	634.841	0
638.208	4	rest.jpg	NaN	NaN	638.208	641.937	642.208	NaN	638.208	641.937	642.208	NaN
642.178	4	rest.jpg	NaN	NaN	642.178	645.909	646.178	NaN	642.178	645.909	646.178	NaN
646.149	4	rest.jpg	NaN	NaN	646.149	649.883	650.149	NaN	646.149	649.883	650.149	NaN
650.152	4	Aircraft1_90%_1.jpg	0	0.9	650.152	653.886	651.421	0	650.152	653.886	651.421	0
654.158	4	Aircraft1_90%_47.jpg	0	0.9	654.158	657.887	654.828	0	654.158	657.887	654.828	0
658.21	4	Aircraft1_90%_40.jpg	0	0.9	658.21	661.939	658.92	0	658.21	661.939	658.92	0
662.218	4	Aircraft1_90%_27.jpg	0	0.9	662.218	665.947	663.363	0	662.218	665.947	663.363	0
666.242	4	Aircraft2_90%_35.jpg	1	0.9	666.242	669.973	666.887	1	666.242	669.973	666.887	1
670.269	4	rest.jpg	NaN	NaN	670.269	674	674.269	NaN	670.269	674	674.269	NaN
674.25	4	rest.jpg	NaN	NaN	674.25	677.981	678.25	NaN	674.25	677.981	678.25	NaN
678.217	4	rest.jpg	NaN	NaN	678.217	681.946	682.217	NaN	678.217	681.946	682.217	NaN
682.265	4	Aircraft2_70%_23.jpg	1	0.75	682.265	685.994	683.926	1	682.265	685.994	683.926	1
686.294	4	Aircraft1_70%_28.jpg	0	0.75	686.294	690.022	686.875	0	686.294	690.022	686.875	0
690.296	4	Aircraft2_70%_13.jpg	1	0.75	690.296	694.025	691.244	1	690.296	694.025	691.244	1
694.332	4	Aircraft1_70%_45.jpg	0	0.75	694.332	698.063	694.855	0	694.332	698.063	694.855	0
698.375	4	Aircraft1_70%_37.jpg	0	0.75	698.375	702.109	699.161	0	698.375	702.109	699.161	0
702.387	4	rest.jpg	NaN	NaN	702.387	706.121	706.387	NaN	702.387	706.121	706.387	NaN
706.355	4	rest.jpg	NaN	NaN	706.355	710.089	710.355	NaN	706.355	710.089	710.355	NaN
710.322	4	rest.jpg	NaN	NaN	710.322	714.052	714.322	NaN	710.322	714.052	714.322	NaN
714.601	4	Aircraft1_10%_25.jpg	0	0.1	714.601	718.332	715.489	0	714.601	718.332	715.489	0
718.677	4	Aircraft2_10%_49.jpg	1	0.1	718.677	722.406	719.398	1	718.677	722.406	719.398	1
722.706	4	Aircraft2_10%_10.jpg	1	0.1	722.706	726.434	724.54	1	722.706	726.434	724.54	1
726.741	4	Aircraft2_10%_12.jpg	1	0.1	726.741	730.476	727.596	1	726.741	730.476	727.596	1
730.807	4	Aircraft2_10%_7.jpg	1	0.1	730.807	734.536	731.772	1	730.807	734.536	731.772	1
734.826	4	rest.jpg	NaN	NaN	734.826	738.555	738.826	NaN	734.826	738.555	738.826	NaN
738.803	4	rest.jpg	NaN	NaN	738.803	742.535	742.803	NaN	738.803	742.535	742.803	NaN
742.785	4	rest.jpg	NaN	NaN	742.785	746.517	746.785	NaN	742.785	746.517	746.785	NaN
746.786	4	Aircraft2_90%_17.jpg	1	0.9	746.786	750.517	749.471	1	746.786	750.517	749.471	1
750.786	4	Aircraft2_90%_11.jpg	1	0.9	750.786	754.523	752.009	1	750.786	754.523	752.009	1
754.812	4	Aircraft1_90%_20.jpg	0	0.9	754.812	758.541	755.499	0	754.812	758.541	755.499	0
758.847	4	Aircraft2_90%_47.jpg	1	0.9	758.847	762.581	760.37	1	758.847	762.581	760.37	1
763.064	4	Aircraft2_90%_45.jpg	1	0.9	763.064	766.798	764.069	1	763.064	766.798	764.069	1
767.068	4	rest.jpg	NaN	NaN	767.068	770.8	771.068	NaN	767.068	770.8	771.068	NaN
771.052	4	rest.jpg	NaN	NaN	771.052	774.786	775.052	NaN	771.052	774.786	775.052	NaN
775.036	4	rest.jpg	NaN	NaN	775.036	778.771	779.036	NaN	775.036	778.771	779.036	NaN
779.083	4	Aircraft1_70%_38.jpg	0	0.75	779.083	782.818	780.903	0	779.083	782.818	780.903	0
783.111	4	Aircraft2_70%_21.jpg	1	0.75	783.111	786.84	783.973	1	783.111	786.84	783.973	1
787.147	4	Aircraft1_70%_16.jpg	0	0.75	787.147	790.876	787.77	0	787.147	790.876	787.77	0
791.179	4	Aircraft1_70%_46.jpg	0	0.75	791.179	794.909	791.801	0	791.179	794.909	791.801	0
795.195	4	Aircraft2_70%_40.jpg	1	0.75	795.195	798.931	795.973	1	795.195	798.931	795.973	1
799.201	4	rest.jpg	NaN	NaN	799.201	802.933	803.201	NaN	799.201	802.933	803.201	NaN
803.183	4	rest.jpg	NaN	NaN	803.183	806.915	807.183	NaN	803.183	806.915	807.183	NaN
807.164	4	rest.jpg	NaN	NaN	807.164	810.896	811.164	NaN	807.164	810.896	811.164	NaN
811.221	4	Aircraft1_10%_3.jpg	0	0.1	811.221	814.95	811.966	0	811.221	814.95	811.966	0
815.236	4	Aircraft2_10%_28.jpg	1	0.1	815.236	818.967	815.951	1	815.236	818.967	815.951	1
819.278	4	Aircraft1_10%_24.jpg	0	0.1	819.278	823.007	820.194	0	819.278	823.007	820.194	0
823.31	4	Aircraft2_10%_39.jpg	1	0.1	823.31	827.041	824.113	1	823.31	827.041	824.113	1
827.346	4	Aircraft2_10%_8.jpg	1	0.1	827.346	831.075	828.533	1	827.346	831.075	828.533	1
831.362	4	rest.jpg	NaN	NaN	831.362	835.093	835.362	NaN	831.362	835.093	835.362	NaN
835.341	4	rest.jpg	NaN	NaN	835.341	839.076	839.341	NaN	835.341	839.076	839.341	NaN
839.309	4	rest.jpg	NaN	NaN	839.309	843.041	843.309	NaN	839.309	843.041	843.309	NaN
843.419	4	Aircraft1_90%_36.jpg	0	0.9	843.419	847.153	845.042	0	843.419	847.153	845.042	0
847.443	4	Aircraft1_90%_35.jpg	0	0.9	847.443	851.176	848.802	0	847.443	851.176	848.802	0
851.484	4	Aircraft2_90%_3.jpg	1	0.9	851.484	855.22	852.412	1	851.484	855.22	852.412	1
855.51	4	Aircraft1_90%_5.jpg	0	0.9	855.51	859.239	858.582	0	855.51	859.239	858.582	0
859.563	4	Aircraft1_90%_48.jpg	0	0.9	859.563	863.299	860.153	0	859.563	863.299	860.153	0
863.586	4	rest.jpg	NaN	NaN	863.586	867.316	867.586	NaN	863.586	867.316	867.586	NaN
867.548	4	rest.jpg	NaN	NaN	867.548	871.282	871.548	NaN	867.548	871.282	871.548	NaN
871.516	4	rest.jpg	NaN	NaN	871.516	875.25	875.516	NaN	871.516	875.25	875.516	NaN
875.525	4	Aircraft2_70%_30.jpg	1	0.75	875.525	879.26	877.124	1	875.525	879.26	877.124	1
879.576	4	Aircraft2_70%_27.jpg	1	0.75	879.576	883.31	880.252	1	879.576	883.31	880.252	1
883.583	4	Aircraft2_70%_50.jpg	1	0.75	883.583	887.317	884.723	1	883.583	887.317	884.723	1
887.587	4	Aircraft2_70%_29.jpg	1	0.75	887.587	891.318	888.567	1	887.587	891.318	888.567	1
891.593	4	Aircraft1_70%_6.jpg	0	0.75	891.593	895.329	892.358	0	891.593	895.329	892.358	0
895.6	4	rest.jpg	NaN	NaN	895.6	899.332	899.6	NaN	895.6	899.332	899.6	NaN
899.565	4	rest.jpg	NaN	NaN	899.565	903.299	903.565	NaN	899.565	903.299	903.565	NaN
903.531	4	rest.jpg	NaN	NaN	903.531	907.263	907.531	NaN	903.531	907.263	907.531	NaN
907.683	4	Aircraft2_10%_14.jpg	1	0.1	907.683	911.412	908.524	1	907.683	911.412	908.524	1
911.76	4	Aircraft2_10%_5.jpg	1	0.1	911.76	915.497	912.253	1	911.76	915.497	912.253	1
915.823	4	Aircraft2_10%_15.jpg	1	0.1	915.823	919.553	916.117	1	915.823	919.553	916.117	1
919.831	4	Aircraft2_10%_19.jpg	1	0.1	919.831	923.561	920.207	1	919.831	923.561	920.207	1
923.845	4	Aircraft1_10%_31.jpg	0	0.1	923.845	927.58	924.685	0	923.845	927.58	924.685	0
927.867	4	rest.jpg	NaN	NaN	927.867	931.596	931.867	NaN	927.867	931.596	931.867	NaN
931.83	4	rest.jpg	NaN	NaN	931.83	935.561	935.83	NaN	931.83	935.561	935.83	NaN
935.81	4	rest.jpg	NaN	NaN	935.81	939.539	939.81	NaN	935.81	939.539	939.81	NaN
939.828	4	Aircraft1_90%_2.jpg	0	0.9	939.828	943.557	940.906	0	939.828	943.557	940.906	0
943.828	4	Aircraft1_90%_39.jpg	0	0.9	943.828	947.559	944.401	0	943.828	947.559	944.401	0
947.851	4	Aircraft2_90%_26.jpg	1	0.9	947.851	951.582	948.538	1	947.851	951.582	948.538	1
952.073	4	Aircraft1_90%_15.jpg	0	0.9	952.073	955.804	952.434	0	952.073	955.804	952.434	0
956.128	4	Aircraft2_90%_16.jpg	1	0.9	956.128	959.86	957.702	1	956.128	959.86	957.702	1
960.134	4	rest.jpg	NaN	NaN	960.134	963.869	964.134	NaN	960.134	963.869	964.134	NaN
964.12	4	rest.jpg	NaN	NaN	964.12	967.849	968.12	NaN	964.12	967.849	968.12	NaN
968.099	4	rest.jpg	NaN	NaN	968.099	971.835	972.099	NaN	968.099	971.835	972.099	NaN
972.126	4	Aircraft1_70%_1.jpg	0	0.75	972.126	975.855	972.892	0	972.126	975.855	972.892	0
976.155	4	Aircraft1_70%_47.jpg	0	0.75	976.155	979.884	976.882	0	976.155	979.884	976.882	0
980.222	4	Aircraft1_70%_40.jpg	0	0.75	980.222	983.956	981.26	0	980.222	983.956	981.26	0
984.269	4	Aircraft1_70%_27.jpg	0	0.75	984.269	987.998	984.958	0	984.269	987.998	984.958	0
988.288	4	Aircraft2_70%_35.jpg	1	0.75	988.288	992.019	989.5	1	988.288	992.019	989.5	1
992.308	4	rest.jpg	NaN	NaN	992.308	996.037	996.308	NaN	992.308	996.037	996.308	NaN
996.271	4	rest.jpg	NaN	NaN	996.271	1000.006	1000.271	NaN	996.271	1000.006	1000.271	NaN
1000.254	4	rest.jpg	NaN	NaN	1000.254	1003.988	1004.254	NaN	1000.254	1003.988	1004.254	NaN
