onset	duration	stim_file	stim_lable	levelOfOcclusion	stim_started	stim_stopped	key_time	key_fix
40.031	4	Aircraft1_10%_2.jpg	0	0.1	40.031	43.763	41.179	0
44.062	4	Aircraft1_10%_39.jpg	0	0.1	44.062	47.797	45.255	0
48.104	4	Aircraft2_10%_26.jpg	1	0.1	48.104	51.839	49.001	1
52.143	4	Aircraft1_10%_15.jpg	0	0.1	52.143	55.875	52.936	0
56.404	4	Aircraft2_10%_16.jpg	1	0.1	56.404	60.14	57.215	1
60.468	4	rest.jpg	NaN	NaN	60.468	64.197	64.468	NaN
64.43	4	rest.jpg	NaN	NaN	64.43	68.162	68.43	NaN
68.408	4	rest.jpg	NaN	NaN	68.408	72.143	72.408	NaN
72.458	4	Aircraft2_90%_14.jpg	1	0.9	72.458	76.193	74.553	1
76.485	4	Aircraft2_90%_5.jpg	1	0.9	76.485	80.217	78.84	1
80.505	4	Aircraft2_90%_15.jpg	1	0.9	80.505	84.235	81.881	1
84.518	4	Aircraft2_90%_19.jpg	1	0.9	84.518	88.25	87.977	1
88.574	4	Aircraft1_90%_31.jpg	0	0.9	88.574	92.309	90.214	0
92.595	4	rest.jpg	NaN	NaN	92.595	96.325	96.595	NaN
96.573	4	rest.jpg	NaN	NaN	96.573	100.303	100.573	NaN
100.555	4	rest.jpg	NaN	NaN	100.555	104.29	104.555	NaN
104.582	4	Aircraft2_70%_4.jpg	1	0.75	104.582	108.312	106.32	1
108.678	4	Aircraft1_70%_43.jpg	0	0.75	108.678	112.41	109.967	0
112.703	4	Aircraft1_70%_9.jpg	0	0.75	112.703	116.436	114.392	0
116.728	4	Aircraft1_70%_11.jpg	0	0.75	116.728	120.458	119.296	0
120.754	4	Aircraft1_70%_50.jpg	0	0.75	120.754	124.49	121.736	0
124.779	4	rest.jpg	NaN	NaN	124.779	128.509	128.779	NaN
128.759	4	rest.jpg	NaN	NaN	128.759	132.488	132.759	NaN
132.731	4	rest.jpg	NaN	NaN	132.731	136.464	136.731	NaN
136.752	4	Aircraft1_10%_36.jpg	0	0.1	136.752	140.482	137.512	0
140.776	4	Aircraft1_10%_35.jpg	0	0.1	140.776	144.506	142.313	0
144.974	4	Aircraft2_10%_3.jpg	1	0.1	144.974	148.704	145.755	1
149.012	4	Aircraft1_10%_5.jpg	0	0.1	149.012	152.742	150.401	0
153.08	4	Aircraft1_10%_48.jpg	0	0.1	153.08	156.813	153.671	0
157.1	4	rest.jpg	NaN	NaN	157.1	160.832	161.1	NaN
161.09	4	rest.jpg	NaN	NaN	161.09	164.82	165.09	NaN
165.054	4	rest.jpg	NaN	NaN	165.054	168.785	169.054	NaN
169.077	4	Aircraft1_90%_3.jpg	0	0.9	169.077	172.812	170.049	0
173.101	4	Aircraft2_90%_28.jpg	1	0.9	173.101	176.833	174.148	1
177.12	4	Aircraft1_90%_24.jpg	0	0.9	177.12	180.855	177.75	0
181.143	4	Aircraft2_90%_39.jpg	1	0.9	181.143	184.876	181.911	1
185.157	4	Aircraft2_90%_8.jpg	1	0.9	185.157	188.888	187.064	1
189.16	4	rest.jpg	NaN	NaN	189.16	192.89	193.16	NaN
193.124	4	rest.jpg	NaN	NaN	193.124	196.855	197.124	NaN
197.105	4	rest.jpg	NaN	NaN	197.105	200.834	201.105	NaN
201.166	4	Aircraft2_70%_18.jpg	1	0.75	201.166	204.901	202.28	1
205.353	4	Aircraft1_70%_29.jpg	0	0.75	205.353	209.083	206.391	0
209.382	4	Aircraft2_70%_1.jpg	1	0.75	209.382	213.118	210.128	1
213.443	4	Aircraft1_70%_26.jpg	0	0.75	213.443	217.173	214.074	0
217.468	4	Aircraft2_70%_34.jpg	1	0.75	217.468	221.198	218.203	1
221.474	4	rest.jpg	NaN	NaN	221.474	225.206	225.474	NaN
225.44	4	rest.jpg	NaN	NaN	225.44	229.172	229.44	NaN
229.417	4	rest.jpg	NaN	NaN	229.417	233.15	233.417	NaN
233.476	4	Aircraft2_10%_17.jpg	1	0.1	233.476	237.207	234.496	1
237.564	4	Aircraft2_10%_11.jpg	1	0.1	237.564	241.299	238.369	1
241.618	4	Aircraft1_10%_20.jpg	0	0.1	241.618	245.353	242.196	0
245.683	4	Aircraft2_10%_47.jpg	1	0.1	245.683	249.415	246.252	1
249.705	4	Aircraft2_10%_45.jpg	1	0.1	249.705	253.441	250.402	1
253.713	4	rest.jpg	NaN	NaN	253.713	257.449	257.713	NaN
257.7	4	rest.jpg	NaN	NaN	257.7	261.43	261.7	NaN
261.682	4	rest.jpg	NaN	NaN	261.682	265.418	265.682	NaN
265.732	4	Aircraft1_90%_25.jpg	0	0.9	265.732	269.464	266.727	0
269.756	4	Aircraft2_90%_49.jpg	1	0.9	269.756	273.49	270.535	1
273.816	4	Aircraft2_90%_10.jpg	1	0.9	273.816	277.546	275.508	1
277.828	4	Aircraft2_90%_12.jpg	1	0.9	277.828	281.565	279.195	1
281.84	4	Aircraft2_90%_7.jpg	1	0.9	281.84	285.577	283.703	1
285.869	4	rest.jpg	NaN	NaN	285.869	289.604	289.869	NaN
289.838	4	rest.jpg	NaN	NaN	289.838	293.573	293.838	NaN
293.808	4	rest.jpg	NaN	NaN	293.808	297.54	297.808	NaN
297.821	4	Aircraft1_70%_32.jpg	0	0.75	297.821	301.559	298.996	0
302.099	4	Aircraft1_70%_49.jpg	0	0.75	302.099	305.833	302.69	0
306.114	4	Aircraft2_70%_22.jpg	1	0.75	306.114	309.851	307.144	1
310.153	4	Aircraft1_70%_34.jpg	0	0.75	310.153	313.885	310.748	0
314.181	4	Aircraft1_70%_14.jpg	0	0.75	314.181	317.913	316.04	0
318.187	4	rest.jpg	NaN	NaN	318.187	321.92	322.187	NaN
322.175	4	rest.jpg	NaN	NaN	322.175	325.906	326.175	NaN
326.16	4	rest.jpg	NaN	NaN	326.16	329.892	330.16	NaN
330.163	4	Aircraft1_10%_1.jpg	0	0.1	330.163	333.896	331.091	0
334.23	4	Aircraft1_10%_47.jpg	0	0.1	334.23	337.962	335.116	0
338.292	4	Aircraft1_10%_40.jpg	0	0.1	338.292	342.021	339.305	0
342.312	4	Aircraft1_10%_27.jpg	0	0.1	342.312	346.042	342.874	0
346.316	4	Aircraft2_10%_35.jpg	1	0.1	346.316	350.049	346.999	1
350.322	4	rest.jpg	NaN	NaN	350.322	354.055	354.322	NaN
354.287	4	rest.jpg	NaN	NaN	354.287	358.024	358.287	NaN
358.257	4	rest.jpg	NaN	NaN	358.257	361.987	362.257	NaN
362.31	4	Aircraft1_90%_32.jpg	0	0.9	362.31	366.047	363.188	0
366.332	4	Aircraft1_90%_49.jpg	0	0.9	366.332	370.064	368.092	0
370.345	4	Aircraft2_90%_22.jpg	1	0.9	370.345	374.076	371.054	1
374.359	4	Aircraft1_90%_34.jpg	0	0.9	374.359	378.088	375.327	0
378.371	4	Aircraft1_90%_14.jpg	0	0.9	378.371	382.103	379.257	0
382.369	4	rest.jpg	NaN	NaN	382.369	386.107	386.369	NaN
386.354	4	rest.jpg	NaN	NaN	386.354	390.092	390.354	NaN
390.336	4	rest.jpg	NaN	NaN	390.336	394.069	394.336	NaN
394.359	4	Aircraft2_70%_24.jpg	1	0.75	394.359	398.094	395.296	1
398.407	4	Aircraft2_70%_2.jpg	1	0.75	398.407	402.137	399.322	1
402.455	4	Aircraft2_70%_43.jpg	1	0.75	402.455	406.187	403.262	1
406.474	4	Aircraft2_70%_46.jpg	1	0.75	406.474	410.206	406.929	1
410.498	4	Aircraft1_70%_42.jpg	0	0.75	410.498	414.234	411.478	0
414.515	4	rest.jpg	NaN	NaN	414.515	418.245	418.515	NaN
418.475	4	rest.jpg	NaN	NaN	418.475	422.208	422.475	NaN
422.44	4	rest.jpg	NaN	NaN	422.44	426.17	426.44	NaN
426.457	4	Aircraft2_10%_30.jpg	1	0.1	426.457	430.187	427.669	1
430.473	4	Aircraft2_10%_27.jpg	1	0.1	430.473	434.206	430.858	1
434.53	4	Aircraft2_10%_50.jpg	1	0.1	434.53	438.262	435.18	1
438.577	4	Aircraft2_10%_29.jpg	1	0.1	438.577	442.31	439.211	1
442.606	4	Aircraft1_10%_6.jpg	0	0.1	442.606	446.336	443.64	0
446.618	4	rest.jpg	NaN	NaN	446.618	450.351	450.618	NaN
450.581	4	rest.jpg	NaN	NaN	450.581	454.317	454.581	NaN
454.549	4	rest.jpg	NaN	NaN	454.549	458.281	458.549	NaN
458.599	4	Aircraft2_90%_18.jpg	1	0.9	458.599	462.33	460.747	1
462.609	4	Aircraft1_90%_29.jpg	0	0.9	462.609	466.341	464.379	0
466.768	4	Aircraft2_90%_1.jpg	1	0.9	466.768	470.498	468.694	1
470.788	4	Aircraft1_90%_26.jpg	0	0.9	470.788	474.521	471.67	0
474.791	4	Aircraft2_90%_34.jpg	1	0.9	474.791	478.523	476.341	1
478.794	4	rest.jpg	NaN	NaN	478.794	482.524	482.794	NaN
482.771	4	rest.jpg	NaN	NaN	482.771	486.504	486.771	NaN
486.736	4	rest.jpg	NaN	NaN	486.736	490.468	490.736	NaN
490.765	4	Aircraft1_70%_17.jpg	0	0.75	490.765	494.497	492.993	0
494.794	4	Aircraft2_70%_42.jpg	1	0.75	494.794	498.529	495.72	1
498.828	4	Aircraft2_70%_44.jpg	1	0.75	498.828	502.558	500.579	1
502.864	4	Aircraft1_70%_10.jpg	0	0.75	502.864	506.595	503.674	0
506.921	4	Aircraft2_70%_25.jpg	1	0.75	506.921	510.656	507.899	1
510.928	4	rest.jpg	NaN	NaN	510.928	514.657	514.928	NaN
514.889	4	rest.jpg	NaN	NaN	514.889	518.625	518.889	NaN
518.873	4	rest.jpg	NaN	NaN	518.873	522.609	522.873	NaN
522.905	4	Aircraft1_10%_38.jpg	0	0.1	522.905	526.641	524.709	0
526.965	4	Aircraft2_10%_21.jpg	1	0.1	526.965	530.697	527.695	1
531.009	4	Aircraft1_10%_16.jpg	0	0.1	531.009	534.739	532.747	0
535.067	4	Aircraft1_10%_46.jpg	0	0.1	535.067	538.797	535.711	0
539.092	4	Aircraft2_10%_40.jpg	1	0.1	539.092	542.825	539.842	1
543.097	4	rest.jpg	NaN	NaN	543.097	546.83	547.097	NaN
547.077	4	rest.jpg	NaN	NaN	547.077	550.806	551.077	NaN
551.055	4	rest.jpg	NaN	NaN	551.055	554.79	555.055	NaN
555.118	4	Aircraft2_90%_4.jpg	1	0.9	555.118	558.848	556.787	1
559.116	4	Aircraft1_90%_43.jpg	0	0.9	559.116	562.846	560.563	0
563.137	4	Aircraft1_90%_9.jpg	0	0.9	563.137	566.868	565.08	0
567.155	4	Aircraft1_90%_11.jpg	0	0.9	567.155	570.89	568.284	0
571.16	4	Aircraft1_90%_50.jpg	0	0.9	571.16	574.897	573.104	0
575.169	4	rest.jpg	NaN	NaN	575.169	578.899	579.169	NaN
579.133	4	rest.jpg	NaN	NaN	579.133	582.869	583.133	NaN
583.107	4	rest.jpg	NaN	NaN	583.107	586.836	587.107	NaN
587.155	4	Aircraft1_70%_12.jpg	0	0.75	587.155	590.89	588.112	0
591.236	4	Aircraft2_70%_32.jpg	1	0.75	591.236	594.966	592.137	1
595.259	4	Aircraft2_70%_48.jpg	1	0.75	595.259	598.989	596.334	1
599.275	4	Aircraft1_70%_19.jpg	0	0.75	599.275	603.01	600.087	0
603.303	4	Aircraft1_70%_33.jpg	0	0.75	603.303	607.04	605.267	0
607.312	4	rest.jpg	NaN	NaN	607.312	611.042	611.312	NaN
611.292	4	rest.jpg	NaN	NaN	611.292	615.022	615.292	NaN
615.267	4	rest.jpg	NaN	NaN	615.267	619.001	619.267	NaN
619.296	4	Aircraft2_10%_23.jpg	1	0.1	619.296	623.026	620.166	1
623.339	4	Aircraft1_10%_28.jpg	0	0.1	623.339	627.069	624.135	0
627.397	4	Aircraft2_10%_13.jpg	1	0.1	627.397	631.132	628.673	1
631.446	4	Aircraft1_10%_45.jpg	0	0.1	631.446	635.178	632.09	0
635.495	4	Aircraft1_10%_37.jpg	0	0.1	635.495	639.228	636.248	0
639.5	4	rest.jpg	NaN	NaN	639.5	643.236	643.5	NaN
643.474	4	rest.jpg	NaN	NaN	643.474	647.207	647.474	NaN
647.441	4	rest.jpg	NaN	NaN	647.441	651.173	651.441	NaN
651.5	4	Aircraft2_90%_33.jpg	1	0.9	651.5	655.229	653.155	1
655.505	4	Aircraft2_90%_38.jpg	1	0.9	655.505	659.235	656.879	1
659.519	4	Aircraft1_90%_30.jpg	0	0.9	659.519	663.256	660.339	0
663.567	4	Aircraft1_90%_41.jpg	0	0.9	663.567	667.302	665.111	0
667.591	4	Aircraft1_90%_18.jpg	0	0.9	667.591	671.327	668.345	0
671.613	4	rest.jpg	NaN	NaN	671.613	675.345	675.613	NaN
675.592	4	rest.jpg	NaN	NaN	675.592	679.325	679.592	NaN
679.575	4	rest.jpg	NaN	NaN	679.575	683.309	683.575	NaN
683.639	4	Aircraft2_70%_9.jpg	1	0.75	683.639	687.371	684.491	1
687.663	4	Aircraft2_70%_6.jpg	1	0.75	687.663	691.392	688.613	1
691.691	4	Aircraft1_70%_23.jpg	0	0.75	691.691	695.423	692.627	0
695.698	4	Aircraft1_70%_21.jpg	0	0.75	695.698	699.434	696.288	0
699.73	4	Aircraft2_70%_36.jpg	1	0.75	699.73	703.466	700.542	1
703.75	4	rest.jpg	NaN	NaN	703.75	707.482	707.75	NaN
707.716	4	rest.jpg	NaN	NaN	707.716	711.446	711.716	NaN
711.696	4	rest.jpg	NaN	NaN	711.696	715.431	715.696	NaN
715.742	4	Aircraft2_10%_41.jpg	1	0.1	715.742	719.473	716.529	1
719.77	4	Aircraft1_10%_22.jpg	0	0.1	719.77	723.5	720.37	0
723.815	4	Aircraft1_10%_44.jpg	0	0.1	723.815	727.547	724.806	0
727.838	4	Aircraft1_10%_1.jpg	0	0.1	727.838	731.57	728.519	0
731.899	4	Aircraft2_10%_37.jpg	1	0.1	731.899	735.631	732.825	1
735.923	4	rest.jpg	NaN	NaN	735.923	739.662	739.923	NaN
739.91	4	rest.jpg	NaN	NaN	739.91	743.645	743.91	NaN
743.896	4	rest.jpg	NaN	NaN	743.896	747.633	747.896	NaN
747.919	4	Aircraft2_90%_31.jpg	1	0.9	747.919	751.649	749.284	1
751.941	4	Aircraft1_90%_4.jpg	0	0.9	751.941	755.677	752.873	0
756	4	Aircraft2_90%_20.jpg	1	0.9	756	759.731	756.854	1
760.019	4	Aircraft1_90%_7.jpg	0	0.9	760.019	763.75	760.887	0
764.059	4	Aircraft1_90%_8.jpg	0	0.9	764.059	767.794	764.994	0
768.067	4	rest.jpg	NaN	NaN	768.067	771.802	772.067	NaN
772.053	4	rest.jpg	NaN	NaN	772.053	775.786	776.053	NaN
776.031	4	rest.jpg	NaN	NaN	776.031	779.771	780.031	NaN
780.069	4	Aircraft2_70%_14.jpg	1	0.75	780.069	783.799	780.975	1
784.118	4	Aircraft2_70%_5.jpg	1	0.75	784.118	787.849	785.057	1
788.129	4	Aircraft2_70%_15.jpg	1	0.75	788.129	791.866	789.747	1
792.182	4	Aircraft2_70%_19.jpg	1	0.75	792.182	795.911	793.24	1
796.23	4	Aircraft1_70%_31.jpg	0	0.75	796.23	799.965	797.171	0
800.249	4	rest.jpg	NaN	NaN	800.249	803.981	804.249	NaN
804.22	4	rest.jpg	NaN	NaN	804.22	807.956	808.22	NaN
808.192	4	rest.jpg	NaN	NaN	808.192	811.925	812.192	NaN
812.259	4	Aircraft2_10%_9.jpg	1	0.1	812.259	815.989	813.116	1
816.272	4	Aircraft2_10%_6.jpg	1	0.1	816.272	820.002	817.068	1
820.321	4	Aircraft1_10%_23.jpg	0	0.1	820.321	824.051	821.561	0
824.347	4	Aircraft1_10%_21.jpg	0	0.1	824.347	828.084	825.356	0
828.371	4	Aircraft2_10%_36.jpg	1	0.1	828.371	832.103	829.156	1
832.374	4	rest.jpg	NaN	NaN	832.374	836.104	836.374	NaN
836.338	4	rest.jpg	NaN	NaN	836.338	840.068	840.338	NaN
840.302	4	rest.jpg	NaN	NaN	840.302	844.032	844.302	NaN
844.373	4	Aircraft2_90%_24.jpg	1	0.9	844.373	848.108	846.321	1
848.427	4	Aircraft2_90%_2.jpg	1	0.9	848.427	852.157	849.987	1
852.439	4	Aircraft2_90%_43.jpg	1	0.9	852.439	856.171	854.247	1
856.496	4	Aircraft2_90%_46.jpg	1	0.9	856.496	860.228	857.408	1
860.756	4	Aircraft1_90%_42.jpg	0	0.9	860.756	864.492	862.211	0
864.777	4	rest.jpg	NaN	NaN	864.777	868.514	868.777	NaN
868.759	4	rest.jpg	NaN	NaN	868.759	872.495	872.759	NaN
872.728	4	rest.jpg	NaN	NaN	872.728	876.461	876.728	NaN
876.777	4	Aircraft1_70%_3.jpg	0	0.75	876.777	880.507	878.042	0
880.828	4	Aircraft2_70%_28.jpg	1	0.75	880.828	884.564	881.647	1
884.89	4	Aircraft1_70%_24.jpg	0	0.75	884.89	888.626	885.523	0
888.918	4	Aircraft2_70%_39.jpg	1	0.75	888.918	892.654	889.832	1
892.949	4	Aircraft2_70%_8.jpg	1	0.75	892.949	896.686	893.766	1
896.958	4	rest.jpg	NaN	NaN	896.958	900.687	900.958	NaN
900.936	4	rest.jpg	NaN	NaN	900.936	904.666	904.936	NaN
904.909	4	rest.jpg	NaN	NaN	904.909	908.639	908.909	NaN
908.929	4	Aircraft1_10%_12.jpg	0	0.1	908.929	912.662	909.84	0
912.984	4	Aircraft2_10%_32.jpg	1	0.1	912.984	916.719	914.132	1
917.037	4	Aircraft2_10%_48.jpg	1	0.1	917.037	920.77	917.899	1
921.09	4	Aircraft1_10%_19.jpg	0	0.1	921.09	924.827	922.72	0
925.156	4	Aircraft1_10%_33.jpg	0	0.1	925.156	928.886	925.844	0
929.159	4	rest.jpg	NaN	NaN	929.159	932.89	933.159	NaN
933.121	4	rest.jpg	NaN	NaN	933.121	936.853	937.121	NaN
937.083	4	rest.jpg	NaN	NaN	937.083	940.813	941.083	NaN
941.082	4	Aircraft1_90%_17.jpg	0	0.9	941.082	944.812	942.196	0
945.1	4	Aircraft2_90%_42.jpg	1	0.9	945.1	948.832	945.846	1
949.105	4	Aircraft2_90%_44.jpg	1	0.9	949.105	952.835	950.002	1
953.12	4	Aircraft1_90%_10.jpg	0	0.9	953.12	956.85	953.729	0
957.132	4	Aircraft2_90%_25.jpg	1	0.9	957.132	960.863	958.077	1
961.146	4	rest.jpg	NaN	NaN	961.146	964.878	965.146	NaN
965.127	4	rest.jpg	NaN	NaN	965.127	968.858	969.127	NaN
969.088	4	rest.jpg	NaN	NaN	969.088	972.827	973.088	NaN
973.114	4	Aircraft1_70%_25.jpg	0	0.75	973.114	976.844	974.015	0
977.154	4	Aircraft2_70%_49.jpg	1	0.75	977.154	980.887	978.27	1
981.173	4	Aircraft2_70%_10.jpg	1	0.75	981.173	984.903	982.173	1
985.224	4	Aircraft2_70%_12.jpg	1	0.75	985.224	988.954	985.932	1
989.276	4	Aircraft2_70%_7.jpg	1	0.75	989.276	993.008	990.584	1
993.29	4	rest.jpg	NaN	NaN	993.29	997.022	997.29	NaN
997.272	4	rest.jpg	NaN	NaN	997.272	1001.004	1001.272	NaN
1001.254	4	rest.jpg	NaN	NaN	1001.254	1004.983	1005.254	NaN
