onset	duration	stim_file	stim_lable	levelOfOcclusion	stim_started	stim_stopped	key_time	key_fix
40.004	4	Aircraft1_10%_2.jpg	0	0.1	40.004	43.738	41.416	0
44.021	4	Aircraft1_10%_39.jpg	0	0.1	44.021	47.753	45.308	0
48.028	4	Aircraft2_10%_26.jpg	1	0.1	48.028	51.768	49.221	1
52.063	4	Aircraft1_10%_15.jpg	0	0.1	52.063	55.798	54.344	0
56.114	4	Aircraft2_10%_16.jpg	1	0.1	56.114	59.853	57.113	1
60.155	4	rest.jpg	NaN	NaN	60.155	63.89	64.155	NaN
64.135	4	rest.jpg	NaN	NaN	64.135	67.87	68.135	NaN
68.104	4	rest.jpg	NaN	NaN	68.104	71.842	72.104	NaN
72.126	4	Aircraft2_90%_14.jpg	1	0.9	72.126	75.865	73.245	1
76.137	4	Aircraft2_90%_5.jpg	1	0.9	76.137	79.87	77.536	1
80.142	4	Aircraft2_90%_15.jpg	1	0.9	80.142	83.881	81.636	1
84.162	4	Aircraft2_90%_19.jpg	1	0.9	84.162	87.895	86.351	1
88.167	4	Aircraft1_90%_31.jpg	0	0.9	88.167	91.907	89.766	0
92.188	4	rest.jpg	NaN	NaN	92.188	95.919	96.188	NaN
96.152	4	rest.jpg	NaN	NaN	96.152	99.89	100.152	NaN
100.128	4	rest.jpg	NaN	NaN	100.128	103.862	104.128	NaN
104.143	4	Aircraft2_70%_4.jpg	1	0.75	104.143	107.88	105.254	1
108.16	4	Aircraft1_70%_43.jpg	0	0.75	108.16	111.894	109.515	0
112.182	4	Aircraft1_70%_9.jpg	0	0.75	112.182	115.92	113.644	0
116.222	4	Aircraft1_70%_11.jpg	0	0.75	116.222	119.956	117.751	0
120.248	4	Aircraft1_70%_50.jpg	0	0.75	120.248	123.984	121.666	0
124.263	4	rest.jpg	NaN	NaN	124.263	128	128.263	NaN
128.25	4	rest.jpg	NaN	NaN	128.25	131.986	132.25	NaN
132.233	4	rest.jpg	NaN	NaN	132.233	135.967	136.233	NaN
136.239	4	Aircraft1_10%_36.jpg	0	0.1	136.239	139.972	138.017	0
140.275	4	Aircraft1_10%_35.jpg	0	0.1	140.275	144.006	141.639	0
144.282	4	Aircraft2_10%_3.jpg	1	0.1	144.282	148.021	148.282	1
148.299	4	Aircraft1_10%_5.jpg	0	0.1	148.299	152.029	148.396	0
152.307	4	Aircraft1_10%_48.jpg	0	0.1	152.307	156.04	153.57	0
156.322	4	rest.jpg	NaN	NaN	156.322	160.054	160.322	NaN
160.306	4	rest.jpg	NaN	NaN	160.306	164.036	164.306	NaN
164.266	4	rest.jpg	NaN	NaN	164.266	168.003	168.266	NaN
168.299	4	Aircraft1_90%_3.jpg	0	0.9	168.299	172.035	170.038	0
172.335	4	Aircraft2_90%_28.jpg	1	0.9	172.335	176.073	175.077	1
176.343	4	Aircraft1_90%_24.jpg	0	0.9	176.343	180.073	177.536	0
180.343	4	Aircraft2_90%_39.jpg	1	0.9	180.343	184.073	181.186	1
184.353	4	Aircraft2_90%_8.jpg	1	0.9	184.353	188.089	185.977	1
188.366	4	rest.jpg	NaN	NaN	188.366	192.098	192.366	NaN
192.345	4	rest.jpg	NaN	NaN	192.345	196.077	196.345	NaN
196.313	4	rest.jpg	NaN	NaN	196.313	200.048	200.313	NaN
200.343	4	Aircraft2_70%_18.jpg	1	0.75	200.343	204.08	202.109	1
204.355	4	Aircraft1_70%_29.jpg	0	0.75	204.355	208.087	205.609	0
208.383	4	Aircraft2_70%_1.jpg	1	0.75	208.383	212.12	209.839	1
212.41	4	Aircraft1_70%_26.jpg	0	0.75	212.41	216.14	214.964	0
216.415	4	Aircraft2_70%_34.jpg	1	0.75	216.415	220.145	218.077	1
220.413	4	rest.jpg	NaN	NaN	220.413	224.145	224.413	NaN
224.385	4	rest.jpg	NaN	NaN	224.385	228.115	228.385	NaN
228.351	4	rest.jpg	NaN	NaN	228.351	232.086	232.351	NaN
232.38	4	Aircraft2_10%_17.jpg	1	0.1	232.38	236.11	234.122	1
236.385	4	Aircraft2_10%_11.jpg	1	0.1	236.385	240.117	237.296	1
240.415	4	Aircraft1_10%_20.jpg	0	0.1	240.415	244.147	241.464	0
244.443	4	Aircraft2_10%_47.jpg	1	0.1	244.443	248.173	245.512	1
248.447	4	Aircraft2_10%_45.jpg	1	0.1	248.447	252.18	249.291	1
252.464	4	rest.jpg	NaN	NaN	252.464	256.197	256.464	NaN
256.432	4	rest.jpg	NaN	NaN	256.432	260.168	260.432	NaN
260.402	4	rest.jpg	NaN	NaN	260.402	264.131	264.402	NaN
264.4	4	Aircraft1_90%_25.jpg	0	0.9	264.4	268.136	265.779	0
268.412	4	Aircraft2_90%_49.jpg	1	0.9	268.412	272.144	270.143	1
272.427	4	Aircraft2_90%_10.jpg	1	0.9	272.427	276.163	275.999	1
276.464	4	Aircraft2_90%_12.jpg	1	0.9	276.464	280.2	280.065	1
280.471	4	Aircraft2_90%_7.jpg	1	0.9	280.471	284.201	281.835	1
284.465	4	rest.jpg	NaN	NaN	284.465	288.197	288.465	NaN
288.439	4	rest.jpg	NaN	NaN	288.439	292.17	292.439	NaN
292.42	4	rest.jpg	NaN	NaN	292.42	296.155	296.42	NaN
296.427	4	Aircraft1_70%_32.jpg	0	0.75	296.427	300.163	297.534	0
300.454	4	Aircraft1_70%_49.jpg	0	0.75	300.454	304.186	301.448	0
304.485	4	Aircraft2_70%_22.jpg	1	0.75	304.485	308.218	306.929	1
308.495	4	Aircraft1_70%_34.jpg	0	0.75	308.495	312.228	309.55	0
312.502	4	Aircraft1_70%_14.jpg	0	0.75	312.502	316.235	313.787	0
316.515	4	rest.jpg	NaN	NaN	316.515	320.247	320.515	NaN
320.479	4	rest.jpg	NaN	NaN	320.479	324.209	324.479	NaN
324.441	4	rest.jpg	NaN	NaN	324.441	328.176	328.441	NaN
328.459	4	Aircraft1_10%_1.jpg	0	0.1	328.459	332.196	329.425	0
332.484	4	Aircraft1_10%_47.jpg	0	0.1	332.484	336.217	333.358	0
336.494	4	Aircraft1_10%_40.jpg	0	0.1	336.494	340.224	337.699	0
340.505	4	Aircraft1_10%_27.jpg	0	0.1	340.505	344.241	341.447	0
344.515	4	Aircraft2_10%_35.jpg	1	0.1	344.515	348.25	345.554	1
348.527	4	rest.jpg	NaN	NaN	348.527	352.264	352.527	NaN
352.511	4	rest.jpg	NaN	NaN	352.511	356.246	356.511	NaN
356.478	4	rest.jpg	NaN	NaN	356.478	360.208	360.478	NaN
360.503	4	Aircraft1_90%_32.jpg	0	0.9	360.503	364.234	362.776	0
364.522	4	Aircraft1_90%_49.jpg	0	0.9	364.522	368.254	367.476	0
368.541	4	Aircraft2_90%_22.jpg	1	0.9	368.541	372.273	371.25	1
372.562	4	Aircraft1_90%_34.jpg	0	0.9	372.562	376.294	375.564	0
376.565	4	Aircraft1_90%_14.jpg	0	0.9	376.565	380.3	378.211	0
380.573	4	rest.jpg	NaN	NaN	380.573	384.308	384.573	NaN
384.54	4	rest.jpg	NaN	NaN	384.54	388.27	388.54	NaN
388.514	4	rest.jpg	NaN	NaN	388.514	392.25	392.514	NaN
392.519	4	Aircraft2_70%_24.jpg	1	0.75	392.519	396.254	394.532	1
396.526	4	Aircraft2_70%_2.jpg	1	0.75	396.526	400.26	398.108	1
400.538	4	Aircraft2_70%_43.jpg	1	0.75	400.538	404.273	401.625	1
404.545	4	Aircraft2_70%_46.jpg	1	0.75	404.545	408.278	406.761	1
408.568	4	Aircraft1_70%_42.jpg	0	0.75	408.568	412.303	409.485	0
412.564	4	rest.jpg	NaN	NaN	412.564	416.296	416.564	NaN
416.527	4	rest.jpg	NaN	NaN	416.527	420.259	420.527	NaN
420.491	4	rest.jpg	NaN	NaN	420.491	424.223	424.491	NaN
424.501	4	Aircraft2_10%_30.jpg	1	0.1	424.501	428.236	425.631	1
428.536	4	Aircraft2_10%_27.jpg	1	0.1	428.536	432.269	429.298	1
432.567	4	Aircraft2_10%_50.jpg	1	0.1	432.567	436.3	433.652	1
436.589	4	Aircraft2_10%_29.jpg	1	0.1	436.589	440.319	437.253	1
440.609	4	Aircraft1_10%_6.jpg	0	0.1	440.609	444.347	441.58	0
444.61	4	rest.jpg	NaN	NaN	444.61	448.345	448.61	NaN
448.594	4	rest.jpg	NaN	NaN	448.594	452.325	452.594	NaN
452.564	4	rest.jpg	NaN	NaN	452.564	456.296	456.564	NaN
456.582	4	Aircraft2_90%_18.jpg	1	0.9	456.582	460.314	459.445	1
460.588	4	Aircraft1_90%_29.jpg	0	0.9	460.588	464.32	462.592	0
464.62	4	Aircraft2_90%_1.jpg	1	0.9	464.62	468.354	467.023	1
468.617	4	Aircraft1_90%_26.jpg	0	0.9	468.617	472.355	471.417	0
472.637	4	Aircraft2_90%_34.jpg	1	0.9	472.637	476.372	473.759	1
476.653	4	rest.jpg	NaN	NaN	476.653	480.384	480.653	NaN
480.616	4	rest.jpg	NaN	NaN	480.616	484.351	484.616	NaN
484.597	4	rest.jpg	NaN	NaN	484.597	488.332	488.597	NaN
488.641	4	Aircraft1_70%_17.jpg	0	0.75	488.641	492.373	491.428	0
492.659	4	Aircraft2_70%_42.jpg	1	0.75	492.659	496.391	494.732	1
496.665	4	Aircraft2_70%_44.jpg	1	0.75	496.665	500.4	498.799	1
500.675	4	Aircraft1_70%_10.jpg	0	0.75	500.675	504.41	501.571	0
504.686	4	Aircraft2_70%_25.jpg	1	0.75	504.686	508.424	506.607	1
508.699	4	rest.jpg	NaN	NaN	508.699	512.429	512.699	NaN
512.676	4	rest.jpg	NaN	NaN	512.676	516.413	516.676	NaN
516.664	4	rest.jpg	NaN	NaN	516.664	520.394	520.664	NaN
520.699	4	Aircraft1_10%_38.jpg	0	0.1	520.699	524.431	521.977	0
524.733	4	Aircraft2_10%_21.jpg	1	0.1	524.733	528.469	525.576	1
528.746	4	Aircraft1_10%_16.jpg	0	0.1	528.746	532.482	531.754	0
532.76	4	Aircraft1_10%_46.jpg	0	0.1	532.76	536.494	533.68	0
536.778	4	Aircraft2_10%_40.jpg	1	0.1	536.778	540.514	537.514	1
540.794	4	rest.jpg	NaN	NaN	540.794	544.524	544.794	NaN
544.771	4	rest.jpg	NaN	NaN	544.771	548.504	548.771	NaN
548.742	4	rest.jpg	NaN	NaN	548.742	552.472	552.742	NaN
552.76	4	Aircraft2_90%_4.jpg	1	0.9	552.76	556.491	554.205	1
556.761	4	Aircraft1_90%_43.jpg	0	0.9	556.761	560.496	557.631	0
560.766	4	Aircraft1_90%_9.jpg	0	0.9	560.766	564.501	563.387	0
564.791	4	Aircraft1_90%_11.jpg	0	0.9	564.791	568.528	567.256	0
568.813	4	Aircraft1_90%_50.jpg	0	0.9	568.813	572.543	571.26	0
572.824	4	rest.jpg	NaN	NaN	572.824	576.559	576.824	NaN
576.788	4	rest.jpg	NaN	NaN	576.788	580.519	580.788	NaN
580.752	4	rest.jpg	NaN	NaN	580.752	584.487	584.752	NaN
584.779	4	Aircraft1_70%_12.jpg	0	0.75	584.779	588.509	586.133	0
588.784	4	Aircraft2_70%_32.jpg	1	0.75	588.784	592.517	590.147	1
592.793	4	Aircraft2_70%_48.jpg	1	0.75	592.793	596.523	593.826	1
596.8	4	Aircraft1_70%_19.jpg	0	0.75	596.8	600.532	597.709	0
600.837	4	Aircraft1_70%_33.jpg	0	0.75	600.837	604.571	602.395	0
604.835	4	rest.jpg	NaN	NaN	604.835	608.571	608.835	NaN
608.818	4	rest.jpg	NaN	NaN	608.818	612.553	612.818	NaN
612.785	4	rest.jpg	NaN	NaN	612.785	616.521	616.785	NaN
616.797	4	Aircraft2_10%_23.jpg	1	0.1	616.797	620.53	617.605	1
620.831	4	Aircraft1_10%_28.jpg	0	0.1	620.831	624.568	621.654	0
624.859	4	Aircraft2_10%_13.jpg	1	0.1	624.859	628.589	626.197	1
628.88	4	Aircraft1_10%_45.jpg	0	0.1	628.88	632.616	629.806	0
632.906	4	Aircraft1_10%_37.jpg	0	0.1	632.906	636.639	633.902	0
636.914	4	rest.jpg	NaN	NaN	636.914	640.651	640.914	NaN
640.896	4	rest.jpg	NaN	NaN	640.896	644.631	644.896	NaN
644.878	4	rest.jpg	NaN	NaN	644.878	648.608	648.878	NaN
648.885	4	Aircraft2_90%_33.jpg	1	0.9	648.885	652.621	651.75	1
652.889	4	Aircraft2_90%_38.jpg	1	0.9	652.889	656.619	654.468	1
656.916	4	Aircraft1_90%_30.jpg	0	0.9	656.916	660.651	657.783	0
660.944	4	Aircraft1_90%_41.jpg	0	0.9	660.944	664.679	662.497	0
664.967	4	Aircraft1_90%_18.jpg	0	0.9	664.967	668.702	667.33	0
668.982	4	rest.jpg	NaN	NaN	668.982	672.717	672.982	NaN
672.948	4	rest.jpg	NaN	NaN	672.948	676.686	676.948	NaN
676.916	4	rest.jpg	NaN	NaN	676.916	680.646	680.916	NaN
680.948	4	Aircraft2_70%_9.jpg	1	0.75	680.948	684.685	682.407	1
684.956	4	Aircraft2_70%_6.jpg	1	0.75	684.956	688.693	686.228	1
688.969	4	Aircraft1_70%_23.jpg	0	0.75	688.969	692.706	691.316	0
693.009	4	Aircraft1_70%_21.jpg	0	0.75	693.009	696.745	694.019	0
697.038	4	Aircraft2_70%_36.jpg	1	0.75	697.038	700.771	699.575	1
701.038	4	rest.jpg	NaN	NaN	701.038	704.774	705.038	NaN
705.005	4	rest.jpg	NaN	NaN	705.005	708.738	709.005	NaN
708.987	4	rest.jpg	NaN	NaN	708.987	712.723	712.987	NaN
713.021	4	Aircraft2_10%_41.jpg	1	0.1	713.021	716.753	714.115	1
717.05	4	Aircraft1_10%_22.jpg	0	0.1	717.05	720.785	717.947	0
721.086	4	Aircraft1_10%_44.jpg	0	0.1	721.086	724.822	722.855	0
725.109	4	Aircraft1_10%_1.jpg	0	0.1	725.109	728.845	725.939	0
729.135	4	Aircraft2_10%_37.jpg	1	0.1	729.135	732.872	731.18	1
733.149	4	rest.jpg	NaN	NaN	733.149	736.882	737.149	NaN
737.129	4	rest.jpg	NaN	NaN	737.129	740.858	741.129	NaN
741.088	4	rest.jpg	NaN	NaN	741.088	744.82	745.088	NaN
745.113	4	Aircraft2_90%_31.jpg	1	0.9	745.113	748.845	746.627	1
749.14	4	Aircraft1_90%_4.jpg	0	0.9	749.14	752.875	750.052	0
753.162	4	Aircraft2_90%_20.jpg	1	0.9	753.162	756.897	754.652	1
757.167	4	Aircraft1_90%_7.jpg	0	0.9	757.167	760.904	758.952	0
761.176	4	Aircraft1_90%_8.jpg	0	0.9	761.176	764.913	763.084	0
765.176	4	rest.jpg	NaN	NaN	765.176	768.907	769.176	NaN
769.139	4	rest.jpg	NaN	NaN	769.139	772.873	773.139	NaN
773.104	4	rest.jpg	NaN	NaN	773.104	776.834	777.104	NaN
777.108	4	Aircraft2_70%_14.jpg	1	0.75	777.108	780.84	778.411	1
781.145	4	Aircraft2_70%_5.jpg	1	0.75	781.145	784.881	783.189	1
785.156	4	Aircraft2_70%_15.jpg	1	0.75	785.156	788.886	786.718	1
789.157	4	Aircraft2_70%_19.jpg	1	0.75	789.157	792.892	793.157	1
793.187	4	Aircraft1_70%_31.jpg	0	0.75	793.187	796.924	794.931	0
797.187	4	rest.jpg	NaN	NaN	797.187	800.919	801.187	NaN
801.156	4	rest.jpg	NaN	NaN	801.156	804.893	805.156	NaN
805.138	4	rest.jpg	NaN	NaN	805.138	808.867	809.138	NaN
809.143	4	Aircraft2_10%_9.jpg	1	0.1	809.143	812.878	809.949	1
813.15	4	Aircraft2_10%_6.jpg	1	0.1	813.15	816.885	813.761	1
817.178	4	Aircraft1_10%_23.jpg	0	0.1	817.178	820.909	818.022	0
821.192	4	Aircraft1_10%_21.jpg	0	0.1	821.192	824.926	825.192	0
825.198	4	Aircraft2_10%_36.jpg	1	0.1	825.198	828.933	826.501	1
829.208	4	rest.jpg	NaN	NaN	829.208	832.94	833.208	NaN
833.187	4	rest.jpg	NaN	NaN	833.187	836.919	837.187	NaN
837.151	4	rest.jpg	NaN	NaN	837.151	840.881	841.151	NaN
841.155	4	Aircraft2_90%_24.jpg	1	0.9	841.155	844.892	842.561	1
845.168	4	Aircraft2_90%_2.jpg	1	0.9	845.168	848.901	846.998	1
849.169	4	Aircraft2_90%_43.jpg	1	0.9	849.169	852.901	853.169	1
853.181	4	Aircraft2_90%_46.jpg	1	0.9	853.181	856.917	855.214	1
857.2	4	Aircraft1_90%_42.jpg	0	0.9	857.2	860.937	859.528	0
861.216	4	rest.jpg	NaN	NaN	861.216	864.951	865.216	NaN
865.195	4	rest.jpg	NaN	NaN	865.195	868.925	869.195	NaN
869.164	4	rest.jpg	NaN	NaN	869.164	872.896	873.164	NaN
873.17	4	Aircraft1_70%_3.jpg	0	0.75	873.17	876.899	874.156	0
877.181	4	Aircraft2_70%_28.jpg	1	0.75	877.181	880.918	879.013	1
881.196	4	Aircraft1_70%_24.jpg	0	0.75	881.196	884.931	884.495	0
885.205	4	Aircraft2_70%_39.jpg	1	0.75	885.205	888.935	886.332	1
889.21	4	Aircraft2_70%_8.jpg	1	0.75	889.21	892.94	889.617	1
893.232	4	rest.jpg	NaN	NaN	893.232	896.965	893.559	NaN
897.197	4	rest.jpg	NaN	NaN	897.197	900.932	901.197	NaN
901.174	4	rest.jpg	NaN	NaN	901.174	904.904	905.174	NaN
905.22	4	Aircraft1_10%_12.jpg	0	0.1	905.22	908.952	906.22	0
909.247	4	Aircraft2_10%_32.jpg	1	0.1	909.247	912.976	910.049	1
913.25	4	Aircraft2_10%_48.jpg	1	0.1	913.25	916.982	917.25	1
917.264	4	Aircraft1_10%_19.jpg	0	0.1	917.264	920.996	921.264	0
921.271	4	Aircraft1_10%_33.jpg	0	0.1	921.271	925.001	922.617	0
925.282	4	rest.jpg	NaN	NaN	925.282	929.014	929.282	NaN
929.254	4	rest.jpg	NaN	NaN	929.254	932.986	933.254	NaN
933.233	4	rest.jpg	NaN	NaN	933.233	936.965	937.233	NaN
937.239	4	Aircraft1_90%_17.jpg	0	0.9	937.239	940.969	939.392	0
941.243	4	Aircraft2_90%_42.jpg	1	0.9	941.243	944.979	943.311	1
945.247	4	Aircraft2_90%_44.jpg	1	0.9	945.247	948.977	949.247	1
949.245	4	Aircraft1_90%_10.jpg	0	0.9	949.245	952.977	953.245	0
953.256	4	Aircraft2_90%_25.jpg	1	0.9	953.256	956.986	953.989	1
957.249	4	rest.jpg	NaN	NaN	957.249	960.978	961.249	NaN
961.21	4	rest.jpg	NaN	NaN	961.21	964.948	965.21	NaN
965.18	4	rest.jpg	NaN	NaN	965.18	968.915	969.18	NaN
969.188	4	Aircraft1_70%_25.jpg	0	0.75	969.188	972.918	971.611	0
973.202	4	Aircraft2_70%_49.jpg	1	0.75	973.202	976.939	974.516	1
977.21	4	Aircraft2_70%_10.jpg	1	0.75	977.21	980.94	981.21	1
981.214	4	Aircraft2_70%_12.jpg	1	0.75	981.214	984.951	984.268	1
985.239	4	Aircraft2_70%_7.jpg	1	0.75	985.239	988.969	986.464	1
989.23	4	rest.jpg	NaN	NaN	989.23	992.965	993.23	NaN
993.197	4	rest.jpg	NaN	NaN	993.197	996.933	997.197	NaN
997.17	4	rest.jpg	NaN	NaN	997.17	1000.902	1001.17	NaN
