sub	run	block	trail	oneset	duration	stim_file	stim_lable	level of occlusion	stim_started	stim_stopped	key_time	key_fix
5	2	1	1	40.2	4	Aircraft1_10%_17.jpg	0	0.1	40.2	43.953	41.197	0
5	2	1	2	44.202	4	Aircraft2_10%_42.jpg	1	0.1	44.202	47.952	45.126	1
5	2	1	3	48.221	4	Aircraft2_10%_44.jpg	1	0.1	48.221	51.969	49.146	1
5	2	1	4	52.229	4	Aircraft1_10%_10.jpg	0	0.1	52.229	55.98	53.042	0
5	2	1	5	56.241	4	Aircraft2_10%_25.jpg	1	0.1	56.241	59.993	57.356	1
5	2	1	6	60.242	4	rest.jpg	n/a	n/a	60.242	63.99	64.242	n/a
5	2	1	7	64.239	4	rest.jpg	n/a	n/a	64.239	67.986	68.239	n/a
5	2	1	8	68.222	4	rest.jpg	n/a	n/a	68.222	71.971	72.222	n/a
5	2	2	9	72.219	4	Aircraft1_90%_12.jpg	0	0.9	72.219	75.969	73.705	0
5	2	2	10	76.225	4	Aircraft2_90%_32.jpg	1	0.9	76.225	79.974	77.892	1
5	2	2	11	80.237	4	Aircraft2_90%_48.jpg	1	0.9	80.237	83.987	80.933	1
5	2	2	12	84.235	4	Aircraft1_90%_19.jpg	0	0.9	84.235	87.985	85.502	0
5	2	2	13	88.25	4	Aircraft1_90%_33.jpg	0	0.9	88.25	91.999	89.551	0
5	2	2	14	92.249	4	rest.jpg	n/a	n/a	92.249	96.001	96.249	n/a
5	2	2	15	96.249	4	rest.jpg	n/a	n/a	96.249	100.004	100.249	n/a
5	2	2	16	100.244	4	rest.jpg	n/a	n/a	100.244	103.998	104.244	n/a
5	2	3	17	104.266	4	Aircraft2_70%_33.jpg	1	0.75	104.266	108.02	105.504	1
5	2	3	18	108.282	4	Aircraft2_70%_38.jpg	1	0.75	108.282	112.03	109.547	1
5	2	3	19	112.275	4	Aircraft1_70%_30.jpg	0	0.75	112.275	116.027	112.957	0
5	2	3	20	116.274	4	Aircraft1_70%_41.jpg	0	0.75	116.274	120.026	117.61	0
5	2	3	21	120.272	4	Aircraft1_70%_18.jpg	0	0.75	120.272	124.024	121.168	0
5	2	3	22	124.27	4	rest.jpg	n/a	n/a	124.27	128.022	128.27	n/a
5	2	3	23	128.257	4	rest.jpg	n/a	n/a	128.257	132.011	132.257	n/a
5	2	3	24	132.247	4	rest.jpg	n/a	n/a	132.247	135.994	136.247	n/a
5	2	4	25	136.252	4	Aircraft2_10%_24.jpg	1	0.1	136.252	140	137.668	1
5	2	4	26	140.267	4	Aircraft2_10%_2.jpg	1	0.1	140.267	144.017	141.275	1
5	2	4	27	144.261	4	Aircraft2_10%_43.jpg	1	0.1	144.261	148.013	145.199	1
5	2	4	28	148.259	4	Aircraft2_10%_46.jpg	1	0.1	148.259	152.016	149.434	1
5	2	4	29	152.272	4	Aircraft1_10%_42.jpg	0	0.1	152.272	156.02	153.501	0
5	2	4	30	156.284	4	rest.jpg	n/a	n/a	156.284	160.033	160.284	n/a
5	2	4	31	160.269	4	rest.jpg	n/a	n/a	160.269	164.017	164.269	n/a
5	2	4	32	164.25	4	rest.jpg	n/a	n/a	164.25	168.002	168.25	n/a
5	2	5	33	168.26	4	Aircraft2_90%_9.jpg	1	0.9	168.26	172.016	169.957	1
5	2	5	34	172.276	4	Aircraft2_90%_6.jpg	1	0.9	172.276	176.029	173.99	1
5	2	5	35	176.292	4	Aircraft1_90%_23.jpg	0	0.9	176.292	180.042	178.132	0
5	2	5	36	180.286	4	Aircraft1_90%_21.jpg	0	0.9	180.286	184.033	181.232	0
5	2	5	37	184.296	4	Aircraft2_90%_36.jpg	1	0.9	184.296	188.043	185.561	1
5	2	5	38	188.3	4	rest.jpg	n/a	n/a	188.3	192.047	192.3	n/a
5	2	5	39	192.295	4	rest.jpg	n/a	n/a	192.295	196.048	196.295	n/a
5	2	5	40	196.28	4	rest.jpg	n/a	n/a	196.28	200.034	200.28	n/a
5	2	6	41	200.279	4	Aircraft2_70%_31.jpg	1	0.75	200.279	204.028	201.508	1
5	2	6	42	204.274	4	Aircraft1_70%_4.jpg	0	0.75	204.274	208.023	206.416	0
5	2	6	43	208.269	4	Aircraft2_70%_20.jpg	1	0.75	208.269	212.02	209.895	1
5	2	6	44	212.266	4	Aircraft1_70%_7.jpg	0	0.75	212.266	216.017	213.214	0
5	2	6	45	216.261	4	Aircraft1_70%_8.jpg	0	0.75	216.261	220.015	217.053	0
5	2	6	46	220.272	4	rest.jpg	n/a	n/a	220.272	224.025	224.272	n/a
5	2	6	47	224.26	4	rest.jpg	n/a	n/a	224.26	228.014	228.26	n/a
5	2	6	48	228.265	4	rest.jpg	n/a	n/a	228.265	232.018	232.265	n/a
5	2	7	49	232.263	4	Aircraft2_10%_31.jpg	1	0.1	232.263	236.014	233.704	1
5	2	7	50	236.269	4	Aircraft1_10%_4.jpg	0	0.1	236.269	240.016	237.723	0
5	2	7	51	240.281	4	Aircraft2_10%_20.jpg	1	0.1	240.281	244.03	241.292	1
5	2	7	52	244.294	4	Aircraft1_10%_7.jpg	0	0.1	244.294	248.048	245.765	0
5	2	7	53	248.295	4	Aircraft1_10%_8.jpg	0	0.1	248.295	252.047	249.536	0
5	2	7	54	252.309	4	rest.jpg	n/a	n/a	252.309	256.056	256.309	n/a
5	2	7	55	256.295	4	rest.jpg	n/a	n/a	256.295	260.043	260.295	n/a
5	2	7	56	260.28	4	rest.jpg	n/a	n/a	260.28	264.033	264.28	n/a
5	2	8	57	264.278	4	Aircraft2_90%_41.jpg	1	0.9	264.278	268.025	266.063	1
5	2	8	58	268.279	4	Aircraft1_90%_22.jpg	0	0.9	268.279	272.033	270.049	0
5	2	8	59	272.292	4	Aircraft1_90%_44.jpg	0	0.9	272.292	276.041	274.06	0
5	2	8	60	276.286	4	Aircraft1_90%_1.jpg	0	0.9	276.286	280.04	277.08	0
5	2	8	61	280.285	4	Aircraft2_90%_37.jpg	1	0.9	280.285	284.035	281.455	1
5	2	8	62	284.284	4	rest.jpg	n/a	n/a	284.284	288.03	288.284	n/a
5	2	8	63	288.268	4	rest.jpg	n/a	n/a	288.268	292.023	292.268	n/a
5	2	8	64	292.259	4	rest.jpg	n/a	n/a	292.259	296.013	296.259	n/a
5	2	9	65	296.26	4	Aircraft2_70%_41.jpg	1	0.75	296.26	300.014	297.672	1
5	2	9	66	300.278	4	Aircraft1_70%_22.jpg	0	0.75	300.278	304.025	301.821	0
5	2	9	67	304.271	4	Aircraft1_70%_44.jpg	0	0.75	304.271	308.025	305.67	0
5	2	9	68	308.288	4	Aircraft1_70%_1.jpg	0	0.75	308.288	312.037	309.771	0
5	2	9	69	312.29	4	Aircraft2_70%_37.jpg	1	0.75	312.29	316.043	313.042	1
5	2	9	70	316.301	4	rest.jpg	n/a	n/a	316.301	320.048	320.301	n/a
5	2	9	71	320.28	4	rest.jpg	n/a	n/a	320.28	324.027	324.28	n/a
5	2	9	72	324.269	4	rest.jpg	n/a	n/a	324.269	328.017	328.269	n/a
5	2	10	73	328.261	4	Aircraft2_10%_33.jpg	1	0.1	328.261	332.013	329.837	1
5	2	10	74	332.268	4	Aircraft2_10%_38.jpg	1	0.1	332.268	336.02	332.995	1
5	2	10	75	336.281	4	Aircraft1_10%_30.jpg	0	0.1	336.281	340.03	337.632	0
5	2	10	76	340.296	4	Aircraft1_10%_41.jpg	0	0.1	340.296	344.043	341.395	0
5	2	10	77	344.293	4	Aircraft1_10%_18.jpg	0	0.1	344.293	348.047	345.081	0
5	2	10	78	348.308	4	rest.jpg	n/a	n/a	348.308	352.055	352.308	n/a
5	2	10	79	352.29	4	rest.jpg	n/a	n/a	352.29	356.037	356.29	n/a
5	2	10	80	356.279	4	rest.jpg	n/a	n/a	356.279	360.033	360.279	n/a
5	2	11	81	360.284	4	Aircraft2_90%_23.jpg	1	0.9	360.284	364.031	362.056	1
5	2	11	82	364.296	4	Aircraft1_90%_28.jpg	0	0.9	364.296	368.046	366.097	0
5	2	11	83	368.291	4	Aircraft2_90%_13.jpg	1	0.9	368.291	372.039	370.023	1
5	2	11	84	372.301	4	Aircraft1_90%_45.jpg	0	0.9	372.301	376.048	373.565	0
5	2	11	85	376.293	4	Aircraft1_90%_37.jpg	0	0.9	376.293	380.04	377.567	0
5	2	11	86	380.286	4	rest.jpg	n/a	n/a	380.286	384.04	384.286	n/a
5	2	11	87	384.272	4	rest.jpg	n/a	n/a	384.272	388.022	388.272	n/a
5	2	11	88	388.254	4	rest.jpg	n/a	n/a	388.254	392.001	392.254	n/a
5	2	12	89	392.249	4	Aircraft1_70%_2.jpg	0	0.75	392.249	395.998	393.656	0
5	2	12	90	396.247	4	Aircraft1_70%_39.jpg	0	0.75	396.247	399.993	398.316	0
5	2	12	91	400.25	4	Aircraft2_70%_26.jpg	1	0.75	400.25	404.002	402.112	1
5	2	12	92	404.264	4	Aircraft1_70%_15.jpg	0	0.75	404.264	408.015	404.991	0
5	2	12	93	408.265	4	Aircraft2_70%_16.jpg	1	0.75	408.265	412.022	409.622	1
5	2	12	94	412.276	4	rest.jpg	n/a	n/a	412.276	416.023	416.276	n/a
5	2	12	95	416.27	4	rest.jpg	n/a	n/a	416.27	420.02	420.27	n/a
5	2	12	96	420.265	4	rest.jpg	n/a	n/a	420.265	424.015	424.265	n/a
5	2	13	97	424.261	4	Aircraft2_10%_4.jpg	1	0.1	424.261	428.013	425.251	1
5	2	13	98	428.267	4	Aircraft1_10%_43.jpg	0	0.1	428.267	432.016	429.255	0
5	2	13	99	432.277	4	Aircraft1_10%_9.jpg	0	0.1	432.277	436.025	433.626	0
5	2	13	100	436.278	4	Aircraft1_10%_11.jpg	0	0.1	436.278	440.031	437.076	0
5	2	13	101	440.277	4	Aircraft1_10%_50.jpg	0	0.1	440.277	444.031	441.331	0
5	2	13	102	444.276	4	rest.jpg	n/a	n/a	444.276	448.026	448.276	n/a
5	2	13	103	448.276	4	rest.jpg	n/a	n/a	448.276	452.023	452.276	n/a
5	2	13	104	452.254	4	rest.jpg	n/a	n/a	452.254	456.01	456.254	n/a
5	2	14	105	456.274	4	Aircraft1_90%_38.jpg	0	0.9	456.274	460.026	457.826	0
5	2	14	106	460.271	4	Aircraft2_90%_21.jpg	1	0.9	460.271	464.023	461.664	1
5	2	14	107	464.268	4	Aircraft1_90%_16.jpg	0	0.9	464.268	468.016	465.61	0
5	2	14	108	468.264	4	Aircraft1_90%_46.jpg	0	0.9	468.264	472.013	469.004	0
5	2	14	109	472.269	4	Aircraft2_90%_40.jpg	1	0.9	472.269	476.023	473.28	1
5	2	14	110	476.283	4	rest.jpg	n/a	n/a	476.283	480.033	480.283	n/a
5	2	14	111	480.267	4	rest.jpg	n/a	n/a	480.267	484.022	484.267	n/a
5	2	14	112	484.253	4	rest.jpg	n/a	n/a	484.253	488.01	488.253	n/a
5	2	15	113	488.255	4	Aircraft1_70%_36.jpg	0	0.75	488.255	492.01	489.71	0
5	2	15	114	492.256	4	Aircraft1_70%_35.jpg	0	0.75	492.256	496.01	493.63	0
5	2	15	115	496.27	4	Aircraft2_70%_3.jpg	1	0.75	496.27	500.019	497.24	1
5	2	15	116	500.282	4	Aircraft1_70%_5.jpg	0	0.75	500.282	504.036	501.445	0
5	2	15	117	504.282	4	Aircraft1_70%_48.jpg	0	0.75	504.282	508.028	505.881	0
5	2	15	118	508.272	4	rest.jpg	n/a	n/a	508.272	512.019	512.272	n/a
5	2	15	119	512.266	4	rest.jpg	n/a	n/a	512.266	516.013	516.266	n/a
5	2	15	120	516.245	4	rest.jpg	n/a	n/a	516.245	519.994	520.245	n/a
5	2	16	121	520.262	4	Aircraft2_10%_18.jpg	1	0.1	520.262	524.016	521.475	1
5	2	16	122	524.281	4	Aircraft1_10%_29.jpg	0	0.1	524.281	528.034	525.294	0
5	2	16	123	528.3	4	Aircraft2_10%_1.jpg	1	0.1	528.3	532.048	529.601	1
5	2	16	124	532.303	4	Aircraft1_10%_26.jpg	0	0.1	532.303	536.055	533.107	0
5	2	16	125	536.301	4	Aircraft2_10%_34.jpg	1	0.1	536.301	540.053	537.869	1
5	2	16	126	540.31	4	rest.jpg	n/a	n/a	540.31	544.063	544.31	n/a
5	2	16	127	544.308	4	rest.jpg	n/a	n/a	544.308	548.055	548.308	n/a
5	2	16	128	548.298	4	rest.jpg	n/a	n/a	548.298	552.047	552.298	n/a
5	2	17	129	552.29	4	Aircraft2_90%_30.jpg	1	0.9	552.29	556.039	553.721	1
5	2	17	130	556.296	4	Aircraft2_90%_27.jpg	1	0.9	556.296	560.049	557.628	1
5	2	17	131	560.311	4	Aircraft2_90%_50.jpg	1	0.9	560.311	564.06	562.45	1
5	2	17	132	564.31	4	Aircraft2_90%_29.jpg	1	0.9	564.31	568.06	565.88	1
5	2	17	133	568.321	4	Aircraft1_90%_6.jpg	0	0.9	568.321	572.071	569.807	0
5	2	17	134	572.321	4	rest.jpg	n/a	n/a	572.321	576.068	576.321	n/a
5	2	17	135	576.316	4	rest.jpg	n/a	n/a	576.316	580.068	580.316	n/a
5	2	17	136	580.311	4	rest.jpg	n/a	n/a	580.311	584.062	584.311	n/a
5	2	18	137	584.315	4	Aircraft2_70%_17.jpg	1	0.75	584.315	588.069	585.762	1
5	2	18	138	588.316	4	Aircraft2_70%_11.jpg	1	0.75	588.316	592.068	590.069	1
5	2	18	139	592.326	4	Aircraft1_70%_20.jpg	0	0.75	592.326	596.076	593.834	0
5	2	18	140	596.339	4	Aircraft2_70%_47.jpg	1	0.75	596.339	600.091	597.684	1
5	2	18	141	600.336	4	Aircraft2_70%_45.jpg	1	0.75	600.336	604.089	601.431	1
5	2	18	142	604.35	4	rest.jpg	n/a	n/a	604.35	608.097	608.35	n/a
5	2	18	143	608.328	4	rest.jpg	n/a	n/a	608.328	612.081	612.328	n/a
5	2	18	144	612.312	4	rest.jpg	n/a	n/a	612.312	616.059	616.312	n/a
5	2	19	145	616.306	4	Aircraft1_10%_32.jpg	0	0.1	616.306	620.061	617.321	0
5	2	19	146	620.316	4	Aircraft1_10%_49.jpg	0	0.1	620.316	624.063	621.219	0
5	2	19	147	624.328	4	Aircraft2_10%_22.jpg	1	0.1	624.328	628.077	625.078	1
5	2	19	148	628.323	4	Aircraft1_10%_34.jpg	0	0.1	628.323	632.071	629.481	0
5	2	19	149	632.332	4	Aircraft1_10%_14.jpg	0	0.1	632.332	636.085	632.989	0
5	2	19	150	636.331	4	rest.jpg	n/a	n/a	636.331	640.08	640.331	n/a
5	2	19	151	640.33	4	rest.jpg	n/a	n/a	640.33	644.082	644.33	n/a
5	2	19	152	644.314	4	rest.jpg	n/a	n/a	644.314	648.061	648.314	n/a
5	2	20	153	648.318	4	Aircraft1_90%_1.jpg	0	0.9	648.318	652.065	649.409	0
5	2	20	154	652.323	4	Aircraft1_90%_47.jpg	0	0.9	652.323	656.069	653.548	0
5	2	20	155	656.312	4	Aircraft1_90%_40.jpg	0	0.9	656.312	660.061	658.048	0
5	2	20	156	660.304	4	Aircraft1_90%_27.jpg	0	0.9	660.304	664.057	661.959	0
5	2	20	157	664.317	4	Aircraft2_90%_35.jpg	1	0.9	664.317	668.069	665.268	1
5	2	20	158	668.331	4	rest.jpg	n/a	n/a	668.331	672.08	672.331	n/a
5	2	20	159	672.319	4	rest.jpg	n/a	n/a	672.319	676.068	676.319	n/a
5	2	20	160	676.311	4	rest.jpg	n/a	n/a	676.311	680.058	680.311	n/a
5	2	21	161	680.315	4	Aircraft2_70%_23.jpg	1	0.75	680.315	684.065	681.472	1
5	2	21	162	684.311	4	Aircraft1_70%_28.jpg	0	0.75	684.311	688.058	685.788	0
5	2	21	163	688.319	4	Aircraft2_70%_13.jpg	1	0.75	688.319	692.067	689.952	1
5	2	21	164	692.311	4	Aircraft1_70%_45.jpg	0	0.75	692.311	696.062	693.907	0
5	2	21	165	696.326	4	Aircraft1_70%_37.jpg	0	0.75	696.326	700.075	697.707	0
5	2	21	166	700.328	4	rest.jpg	n/a	n/a	700.328	704.075	704.328	n/a
5	2	21	167	704.323	4	rest.jpg	n/a	n/a	704.323	708.07	708.323	n/a
5	2	21	168	708.306	4	rest.jpg	n/a	n/a	708.306	712.059	712.306	n/a
5	2	22	169	712.319	4	Aircraft1_10%_25.jpg	0	0.1	712.319	716.071	713.246	0
5	2	22	170	716.335	4	Aircraft2_10%_49.jpg	1	0.1	716.335	720.082	717.516	1
5	2	22	171	720.338	4	Aircraft2_10%_10.jpg	1	0.1	720.338	724.092	721.306	1
5	2	22	172	724.353	4	Aircraft2_10%_12.jpg	1	0.1	724.353	728.105	725.539	1
5	2	22	173	728.366	4	Aircraft2_10%_7.jpg	1	0.1	728.366	732.118	729.657	1
5	2	22	174	732.38	4	rest.jpg	n/a	n/a	732.38	736.127	736.38	n/a
5	2	22	175	736.357	4	rest.jpg	n/a	n/a	736.357	740.107	740.357	n/a
5	2	22	176	740.339	4	rest.jpg	n/a	n/a	740.339	744.091	744.339	n/a
5	2	23	177	744.354	4	Aircraft2_90%_17.jpg	1	0.9	744.354	748.101	745.622	1
5	2	23	178	748.346	4	Aircraft2_90%_11.jpg	1	0.9	748.346	752.095	749.736	1
5	2	23	179	752.34	4	Aircraft1_90%_20.jpg	0	0.9	752.34	756.093	754.105	0
5	2	23	180	756.338	4	Aircraft2_90%_47.jpg	1	0.9	756.338	760.088	757.064	1
5	2	23	181	760.333	4	Aircraft2_90%_45.jpg	1	0.9	760.333	764.087	761.6	1
5	2	23	182	764.332	4	rest.jpg	n/a	n/a	764.332	768.086	768.332	n/a
5	2	23	183	768.321	4	rest.jpg	n/a	n/a	768.321	772.074	772.321	n/a
5	2	23	184	772.305	4	rest.jpg	n/a	n/a	772.305	776.06	776.305	n/a
5	2	24	185	776.311	4	Aircraft1_70%_38.jpg	0	0.75	776.311	780.064	778.03	0
5	2	24	186	780.31	4	Aircraft2_70%_21.jpg	1	0.75	780.31	784.057	781.593	1
5	2	24	187	784.303	4	Aircraft1_70%_16.jpg	0	0.75	784.303	788.05	785.572	0
5	2	24	188	788.296	4	Aircraft1_70%_46.jpg	0	0.75	788.296	792.043	790.053	0
5	2	24	189	792.288	4	Aircraft2_70%_40.jpg	1	0.75	792.288	796.042	793.328	1
5	2	24	190	796.294	4	rest.jpg	n/a	n/a	796.294	800.047	800.294	n/a
5	2	24	191	800.293	4	rest.jpg	n/a	n/a	800.293	804.046	804.293	n/a
5	2	24	192	804.277	4	rest.jpg	n/a	n/a	804.277	808.029	808.277	n/a
5	2	25	193	808.289	4	Aircraft1_10%_3.jpg	0	0.1	808.289	812.036	809.096	0
5	2	25	194	812.281	4	Aircraft2_10%_28.jpg	1	0.1	812.281	816.035	813.551	1
5	2	25	195	816.282	4	Aircraft1_10%_24.jpg	0	0.1	816.282	820.032	817.084	0
5	2	25	196	820.29	4	Aircraft2_10%_39.jpg	1	0.1	820.29	824.039	821.03	1
5	2	25	197	824.305	4	Aircraft2_10%_8.jpg	1	0.1	824.305	828.054	825.182	1
5	2	25	198	828.322	4	rest.jpg	n/a	n/a	828.322	832.071	832.322	n/a
5	2	25	199	832.307	4	rest.jpg	n/a	n/a	832.307	836.054	836.307	n/a
5	2	25	200	836.286	4	rest.jpg	n/a	n/a	836.286	840.039	840.286	n/a
5	2	26	201	840.281	4	Aircraft1_90%_36.jpg	0	0.9	840.281	844.031	841.656	0
5	2	26	202	844.286	4	Aircraft1_90%_35.jpg	0	0.9	844.286	848.035	845.416	0
5	2	26	203	848.297	4	Aircraft2_90%_3.jpg	1	0.9	848.297	852.047	849.622	1
5	2	26	204	852.3	4	Aircraft1_90%_5.jpg	0	0.9	852.3	856.05	854.127	0
5	2	26	205	856.312	4	Aircraft1_90%_48.jpg	0	0.9	856.312	860.064	857.849	0
5	2	26	206	860.327	4	rest.jpg	n/a	n/a	860.327	864.079	864.327	n/a
5	2	26	207	864.315	4	rest.jpg	n/a	n/a	864.315	868.067	868.315	n/a
5	2	26	208	868.299	4	rest.jpg	n/a	n/a	868.299	872.046	872.299	n/a
5	2	27	209	872.306	4	Aircraft2_70%_30.jpg	1	0.75	872.306	876.055	873.186	1
5	2	27	210	876.317	4	Aircraft2_70%_27.jpg	1	0.75	876.317	880.065	877.711	1
5	2	27	211	880.318	4	Aircraft2_70%_50.jpg	1	0.75	880.318	884.072	882.304	1
5	2	27	212	884.316	4	Aircraft2_70%_29.jpg	1	0.75	884.316	888.065	885.17	1
5	2	27	213	888.311	4	Aircraft1_70%_6.jpg	0	0.75	888.311	892.06	889.509	0
5	2	27	214	892.306	4	rest.jpg	n/a	n/a	892.306	896.054	896.306	n/a
5	2	27	215	896.289	4	rest.jpg	n/a	n/a	896.289	900.036	900.289	n/a
5	2	27	216	900.281	4	rest.jpg	n/a	n/a	900.281	904.029	904.281	n/a
5	2	28	217	904.289	4	Aircraft2_10%_14.jpg	1	0.1	904.289	908.036	905.295	1
5	2	28	218	908.282	4	Aircraft2_10%_5.jpg	1	0.1	908.282	912.028	909.137	1
5	2	28	219	912.291	4	Aircraft2_10%_15.jpg	1	0.1	912.291	916.038	912.97	1
5	2	28	220	916.282	4	Aircraft2_10%_19.jpg	1	0.1	916.282	920.029	917.087	1
5	2	28	221	920.285	4	Aircraft1_10%_31.jpg	0	0.1	920.285	924.032	921.252	0
5	2	28	222	924.278	4	rest.jpg	n/a	n/a	924.278	928.027	928.278	n/a
5	2	28	223	928.259	4	rest.jpg	n/a	n/a	928.259	932.007	932.259	n/a
5	2	28	224	932.24	4	rest.jpg	n/a	n/a	932.24	935.989	936.24	n/a
5	2	29	225	936.238	4	Aircraft1_90%_2.jpg	0	0.9	936.238	939.988	938.114	0
5	2	29	226	940.236	4	Aircraft1_90%_39.jpg	0	0.9	940.236	943.984	942.264	0
5	2	29	227	944.233	4	Aircraft2_90%_26.jpg	1	0.9	944.233	947.983	944.987	1
5	2	29	228	948.231	4	Aircraft1_90%_15.jpg	0	0.9	948.231	951.978	949.665	0
5	2	29	229	952.225	4	Aircraft2_90%_16.jpg	1	0.9	952.225	955.979	953.532	1
5	2	29	230	956.229	4	rest.jpg	n/a	n/a	956.229	959.98	960.229	n/a
5	2	29	231	960.221	4	rest.jpg	n/a	n/a	960.221	963.97	964.221	n/a
5	2	29	232	964.214	4	rest.jpg	n/a	n/a	964.214	967.961	968.214	n/a
5	2	30	233	968.219	4	Aircraft1_70%_1.jpg	0	0.75	968.219	971.969	970.597	0
5	2	30	234	972.219	4	Aircraft1_70%_47.jpg	0	0.75	972.219	975.967	973.809	0
5	2	30	235	976.229	4	Aircraft1_70%_40.jpg	0	0.75	976.229	979.976	978.058	0
5	2	30	236	980.241	4	Aircraft1_70%_27.jpg	0	0.75	980.241	983.995	981.98	0
5	2	30	237	984.261	4	Aircraft2_70%_35.jpg	1	0.75	984.261	988.01	984.967	1
5	2	30	238	988.262	4	rest.jpg	n/a	n/a	988.262	992.009	992.262	n/a
5	2	30	239	992.255	4	rest.jpg	n/a	n/a	992.255	996.008	996.255	n/a
5	2	30	240	996.261	4	rest.jpg	n/a	n/a	996.261	1000.008	1000.261	n/a
