onset	duration	stim_file	stim_lable	levelOfOcclusion	stim_started	stim_stopped	key_time	key_fix	stim_started_1	stim_stopped_1	key_time_1	key_fix_1
40.196	4	Aircraft1_10%_2.jpg	0	0.1	40.196	43.943	42.297	0	40.196	43.943	42.297	0
44.197	4	Aircraft1_10%_39.jpg	0	0.1	44.197	47.95	46.316	0	44.197	47.95	46.316	0
48.212	4	Aircraft2_10%_26.jpg	1	0.1	48.212	51.966	49.153	1	48.212	51.966	49.153	1
52.231	4	Aircraft1_10%_15.jpg	0	0.1	52.231	55.978	53.568	0	52.231	55.978	53.568	0
56.245	4	Aircraft2_10%_16.jpg	1	0.1	56.245	59.998	57.376	1	56.245	59.998	57.376	1
60.263	4	rest.jpg	NaN	NaN	60.263	64.011	64.263	NaN	60.263	64.011	64.263	NaN
64.265	4	rest.jpg	NaN	NaN	64.265	68.012	68.265	NaN	64.265	68.012	68.265	NaN
68.248	4	rest.jpg	NaN	NaN	68.248	72.001	72.248	NaN	68.248	72.001	72.248	NaN
72.268	4	Aircraft2_90%_14.jpg	1	0.9	72.268	76.017	75.032	1	72.268	76.017	75.032	1
76.278	4	Aircraft2_90%_5.jpg	1	0.9	76.278	80.025	77.194	1	76.278	80.025	77.194	1
80.279	4	Aircraft2_90%_15.jpg	1	0.9	80.279	84.028	83.518	1	80.279	84.028	83.518	1
84.291	4	Aircraft2_90%_19.jpg	1	0.9	84.291	88.045	88.291	1	84.291	88.045	88.291	1
88.31	4	Aircraft1_90%_31.jpg	0	0.9	88.31	92.058	90.292	0	88.31	92.058	90.292	0
92.304	4	rest.jpg	NaN	NaN	92.304	96.053	96.304	NaN	92.304	96.053	96.304	NaN
96.285	4	rest.jpg	NaN	NaN	96.285	100.032	100.285	NaN	96.285	100.032	100.285	NaN
100.268	4	rest.jpg	NaN	NaN	100.268	104.018	104.268	NaN	100.268	104.018	104.268	NaN
104.278	4	Aircraft2_70%_4.jpg	1	0.75	104.278	108.025	108.278	1	104.278	108.025	108.278	1
108.289	4	Aircraft1_70%_43.jpg	0	0.75	108.289	112.035	108.365	0	108.289	112.035	108.365	0
112.29	4	Aircraft1_70%_9.jpg	0	0.75	112.29	116.044	113.861	0	112.29	116.044	113.861	0
116.289	4	Aircraft1_70%_11.jpg	0	0.75	116.289	120.037	117.27	0	116.289	120.037	117.27	0
120.296	4	Aircraft1_70%_50.jpg	0	0.75	120.296	124.049	121.119	0	120.296	124.049	121.119	0
124.295	4	rest.jpg	NaN	NaN	124.295	128.047	128.295	NaN	124.295	128.047	128.295	NaN
128.291	4	rest.jpg	NaN	NaN	128.291	132.038	132.291	NaN	128.291	132.038	132.291	NaN
132.27	4	rest.jpg	NaN	NaN	132.27	136.019	136.27	NaN	132.27	136.019	136.27	NaN
136.284	4	Aircraft1_10%_36.jpg	0	0.1	136.284	140.033	137.803	0	136.284	140.033	137.803	0
140.299	4	Aircraft1_10%_35.jpg	0	0.1	140.299	144.049	141.782	0	140.299	144.049	141.782	0
144.295	4	Aircraft2_10%_3.jpg	1	0.1	144.295	148.044	145.461	1	144.295	148.044	145.461	1
148.289	4	Aircraft1_10%_5.jpg	0	0.1	148.289	152.036	149.044	0	148.289	152.036	149.044	0
152.282	4	Aircraft1_10%_48.jpg	0	0.1	152.282	156.034	154.164	0	152.282	156.034	154.164	0
156.293	4	rest.jpg	NaN	NaN	156.293	160.04	160.293	NaN	156.293	160.04	160.293	NaN
160.293	4	rest.jpg	NaN	NaN	160.293	164.04	164.293	NaN	160.293	164.04	164.293	NaN
164.287	4	rest.jpg	NaN	NaN	164.287	168.034	168.287	NaN	164.287	168.034	168.287	NaN
168.279	4	Aircraft1_90%_3.jpg	0	0.9	168.279	172.027	169.213	0	168.279	172.027	169.213	0
172.285	4	Aircraft2_90%_28.jpg	1	0.9	172.285	176.034	174.26	1	172.285	176.034	174.26	1
176.296	4	Aircraft1_90%_24.jpg	0	0.9	176.296	180.043	177.37	0	176.296	180.043	177.37	0
180.298	4	Aircraft2_90%_39.jpg	1	0.9	180.298	184.052	181.922	1	180.298	184.052	181.922	1
184.311	4	Aircraft2_90%_8.jpg	1	0.9	184.311	188.058	185.956	1	184.311	188.058	185.956	1
188.302	4	rest.jpg	NaN	NaN	188.302	192.051	192.302	NaN	188.302	192.051	192.302	NaN
192.281	4	rest.jpg	NaN	NaN	192.281	196.028	196.281	NaN	192.281	196.028	196.281	NaN
196.269	4	rest.jpg	NaN	NaN	196.269	200.021	200.269	NaN	196.269	200.021	200.269	NaN
200.277	4	Aircraft2_70%_18.jpg	1	0.75	200.277	204.024	201.393	1	200.277	204.024	201.393	1
204.29	4	Aircraft1_70%_29.jpg	0	0.75	204.29	208.037	205.021	0	204.29	208.037	205.021	0
208.302	4	Aircraft2_70%_1.jpg	1	0.75	208.302	212.054	210.013	1	208.302	212.054	210.013	1
212.307	4	Aircraft1_70%_26.jpg	0	0.75	212.307	216.056	213.775	0	212.307	216.056	213.775	0
216.319	4	Aircraft2_70%_34.jpg	1	0.75	216.319	220.066	217.339	1	216.319	220.066	217.339	1
220.315	4	rest.jpg	NaN	NaN	220.315	224.067	224.315	NaN	220.315	224.067	224.315	NaN
224.314	4	rest.jpg	NaN	NaN	224.314	228.063	228.314	NaN	224.314	228.063	228.314	NaN
228.307	4	rest.jpg	NaN	NaN	228.307	232.06	232.307	NaN	228.307	232.06	232.307	NaN
232.316	4	Aircraft2_10%_17.jpg	1	0.1	232.316	236.063	234.142	1	232.316	236.063	234.142	1
236.327	4	Aircraft2_10%_11.jpg	1	0.1	236.327	240.079	238.049	1	236.327	240.079	238.049	1
240.326	4	Aircraft1_10%_20.jpg	0	0.1	240.326	244.08	242.031	0	240.326	244.08	242.031	0
244.326	4	Aircraft2_10%_47.jpg	1	0.1	244.326	248.08	245.443	1	244.326	248.08	245.443	1
248.326	4	Aircraft2_10%_45.jpg	1	0.1	248.326	252.078	250.598	1	248.326	252.078	250.598	1
252.324	4	rest.jpg	NaN	NaN	252.324	256.071	256.324	NaN	252.324	256.071	256.324	NaN
256.318	4	rest.jpg	NaN	NaN	256.318	260.064	260.318	NaN	256.318	260.064	260.318	NaN
260.294	4	rest.jpg	NaN	NaN	260.294	264.041	264.294	NaN	260.294	264.041	264.294	NaN
264.284	4	Aircraft1_90%_25.jpg	0	0.9	264.284	268.031	265.191	0	264.284	268.031	265.191	0
268.285	4	Aircraft2_90%_49.jpg	1	0.9	268.285	272.032	270.051	1	268.285	272.032	270.051	1
272.277	4	Aircraft2_90%_10.jpg	1	0.9	272.277	276.028	273.849	1	272.277	276.028	273.849	1
276.289	4	Aircraft2_90%_12.jpg	1	0.9	276.289	280.038	277.88	1	276.289	280.038	277.88	1
280.288	4	Aircraft2_90%_7.jpg	1	0.9	280.288	284.035	280.995	1	280.288	284.035	280.995	1
284.284	4	rest.jpg	NaN	NaN	284.284	288.036	288.284	NaN	284.284	288.036	288.284	NaN
288.268	4	rest.jpg	NaN	NaN	288.268	292.017	292.268	NaN	288.268	292.017	292.268	NaN
292.263	4	rest.jpg	NaN	NaN	292.263	296.014	296.263	NaN	292.263	296.014	296.263	NaN
296.258	4	Aircraft1_70%_32.jpg	0	0.75	296.258	300.005	297.156	0	296.258	300.005	297.156	0
300.264	4	Aircraft1_70%_49.jpg	0	0.75	300.264	304.014	301.458	0	300.264	304.014	301.458	0
304.274	4	Aircraft2_70%_22.jpg	1	0.75	304.274	308.022	304.935	1	304.274	308.022	304.935	1
308.276	4	Aircraft1_70%_34.jpg	0	0.75	308.276	312.028	310.061	0	308.276	312.028	310.061	0
312.274	4	Aircraft1_70%_14.jpg	0	0.75	312.274	316.023	314.323	0	312.274	316.023	314.323	0
316.28	4	rest.jpg	NaN	NaN	316.28	320.03	320.28	NaN	316.28	320.03	320.28	NaN
320.28	4	rest.jpg	NaN	NaN	320.28	324.027	324.28	NaN	320.28	324.027	324.28	NaN
324.273	4	rest.jpg	NaN	NaN	324.273	328.02	328.273	NaN	324.273	328.02	328.273	NaN
328.28	4	Aircraft1_10%_1.jpg	0	0.1	328.28	332.029	329.021	0	328.28	332.029	329.021	0
332.29	4	Aircraft1_10%_47.jpg	0	0.1	332.29	336.039	333.25	0	332.29	336.039	333.25	0
336.294	4	Aircraft1_10%_40.jpg	0	0.1	336.294	340.047	337.534	0	336.294	340.047	337.534	0
340.308	4	Aircraft1_10%_27.jpg	0	0.1	340.308	344.055	341.534	0	340.308	344.055	341.534	0
344.303	4	Aircraft2_10%_35.jpg	1	0.1	344.303	348.056	345.175	1	344.303	348.056	345.175	1
348.302	4	rest.jpg	NaN	NaN	348.302	352.049	352.302	NaN	348.302	352.049	352.302	NaN
352.294	4	rest.jpg	NaN	NaN	352.294	356.047	356.294	NaN	352.294	356.047	356.294	NaN
356.279	4	rest.jpg	NaN	NaN	356.279	360.026	360.279	NaN	356.279	360.026	360.279	NaN
360.271	4	Aircraft1_90%_32.jpg	0	0.9	360.271	364.027	361.274	0	360.271	364.027	361.274	0
364.283	4	Aircraft1_90%_49.jpg	0	0.9	364.283	368.029	365.075	0	364.283	368.029	365.075	0
368.29	4	Aircraft2_90%_22.jpg	1	0.9	368.29	372.039	369.975	1	368.29	372.039	369.975	1
372.282	4	Aircraft1_90%_34.jpg	0	0.9	372.282	376.031	373.185	0	372.282	376.031	373.185	0
376.282	4	Aircraft1_90%_14.jpg	0	0.9	376.282	380.035	377.573	0	376.282	380.035	377.573	0
380.281	4	rest.jpg	NaN	NaN	380.281	384.028	384.281	NaN	380.281	384.028	384.281	NaN
384.273	4	rest.jpg	NaN	NaN	384.273	388.02	388.273	NaN	384.273	388.02	388.273	NaN
388.252	4	rest.jpg	NaN	NaN	388.252	392.005	392.252	NaN	388.252	392.005	392.252	NaN
392.254	4	Aircraft2_70%_24.jpg	1	0.75	392.254	396.013	393.165	1	392.254	396.013	393.165	1
396.267	4	Aircraft2_70%_2.jpg	1	0.75	396.267	400.019	397.134	1	396.267	400.019	397.134	1
400.279	4	Aircraft2_70%_43.jpg	1	0.75	400.279	404.027	401.066	1	400.279	404.027	401.066	1
404.287	4	Aircraft2_70%_46.jpg	1	0.75	404.287	408.039	405.158	1	404.287	408.039	405.158	1
408.286	4	Aircraft1_70%_42.jpg	0	0.75	408.286	412.033	409.438	0	408.286	412.033	409.438	0
412.285	4	rest.jpg	NaN	NaN	412.285	416.035	416.285	NaN	412.285	416.035	416.285	NaN
416.28	4	rest.jpg	NaN	NaN	416.28	420.027	420.28	NaN	416.28	420.027	420.28	NaN
420.259	4	rest.jpg	NaN	NaN	420.259	424.01	424.259	NaN	420.259	424.01	424.259	NaN
424.275	4	Aircraft2_10%_30.jpg	1	0.1	424.275	428.028	425.08	1	424.275	428.028	425.08	1
428.294	4	Aircraft2_10%_27.jpg	1	0.1	428.294	432.043	429.277	1	428.294	432.043	429.277	1
432.294	4	Aircraft2_10%_50.jpg	1	0.1	432.294	436.047	433.779	1	432.294	436.047	433.779	1
436.295	4	Aircraft2_10%_29.jpg	1	0.1	436.295	440.045	438.093	1	436.295	440.045	438.093	1
440.302	4	Aircraft1_10%_6.jpg	0	0.1	440.302	444.056	441.032	0	440.302	444.056	441.032	0
444.302	4	rest.jpg	NaN	NaN	444.302	448.056	448.302	NaN	444.302	448.056	448.302	NaN
448.288	4	rest.jpg	NaN	NaN	448.288	452.035	452.288	NaN	448.288	452.035	452.288	NaN
452.266	4	rest.jpg	NaN	NaN	452.266	456.021	456.266	NaN	452.266	456.021	456.266	NaN
456.266	4	Aircraft2_90%_18.jpg	1	0.9	456.266	460.016	457.715	1	456.266	460.016	457.715	1
460.261	4	Aircraft1_90%_29.jpg	0	0.9	460.261	464.015	461.24	0	460.261	464.015	461.24	0
464.26	4	Aircraft2_90%_1.jpg	1	0.9	464.26	468.011	465.01	1	464.26	468.011	465.01	1
468.257	4	Aircraft1_90%_26.jpg	0	0.9	468.257	472.006	469.469	0	468.257	472.006	469.469	0
472.275	4	Aircraft2_90%_34.jpg	1	0.9	472.275	476.022	473.18	1	472.275	476.022	473.18	1
476.268	4	rest.jpg	NaN	NaN	476.268	480.015	480.268	NaN	476.268	480.015	480.268	NaN
480.247	4	rest.jpg	NaN	NaN	480.247	483.996	484.247	NaN	480.247	483.996	484.247	NaN
484.237	4	rest.jpg	NaN	NaN	484.237	487.984	488.237	NaN	484.237	487.984	488.237	NaN
488.232	4	Aircraft1_70%_17.jpg	0	0.75	488.232	491.979	489.184	0	488.232	491.979	489.184	0
492.232	4	Aircraft2_70%_42.jpg	1	0.75	492.232	495.98	493.355	1	492.232	495.98	493.355	1
496.246	4	Aircraft2_70%_44.jpg	1	0.75	496.246	500	497.039	1	496.246	500	497.039	1
500.267	4	Aircraft1_70%_10.jpg	0	0.75	500.267	504.019	501.196	0	500.267	504.019	501.196	0
504.282	4	Aircraft2_70%_25.jpg	1	0.75	504.282	508.029	505.762	1	504.282	508.029	505.762	1
508.275	4	rest.jpg	NaN	NaN	508.275	512.022	512.275	NaN	508.275	512.022	512.275	NaN
512.272	4	rest.jpg	NaN	NaN	512.272	516.022	516.272	NaN	512.272	516.022	516.272	NaN
516.267	4	rest.jpg	NaN	NaN	516.267	520.014	520.267	NaN	516.267	520.014	520.267	NaN
520.26	4	Aircraft1_10%_38.jpg	0	0.1	520.26	524.01	521.573	0	520.26	524.01	521.573	0
524.257	4	Aircraft2_10%_21.jpg	1	0.1	524.257	528.01	526.09	1	524.257	528.01	526.09	1
528.274	4	Aircraft1_10%_16.jpg	0	0.1	528.274	532.024	529.198	0	528.274	532.024	529.198	0
532.274	4	Aircraft1_10%_46.jpg	0	0.1	532.274	536.021	533.129	0	532.274	536.021	533.129	0
536.268	4	Aircraft2_10%_40.jpg	1	0.1	536.268	540.015	538.173	1	536.268	540.015	538.173	1
540.28	4	rest.jpg	NaN	NaN	540.28	544.032	544.28	NaN	540.28	544.032	544.28	NaN
544.264	4	rest.jpg	NaN	NaN	544.264	548.011	548.264	NaN	544.264	548.011	548.264	NaN
548.254	4	rest.jpg	NaN	NaN	548.254	552.01	552.254	NaN	548.254	552.01	552.254	NaN
552.255	4	Aircraft2_90%_4.jpg	1	0.9	552.255	556.002	553.666	1	552.255	556.002	553.666	1
556.268	4	Aircraft1_90%_43.jpg	0	0.9	556.268	560.022	557.46	0	556.268	560.022	557.46	0
560.285	4	Aircraft1_90%_9.jpg	0	0.9	560.285	564.034	561.904	0	560.285	564.034	561.904	0
564.279	4	Aircraft1_90%_11.jpg	0	0.9	564.279	568.026	566.069	0	564.279	568.026	566.069	0
568.271	4	Aircraft1_90%_50.jpg	0	0.9	568.271	572.025	569.684	0	568.271	572.025	569.684	0
572.271	4	rest.jpg	NaN	NaN	572.271	576.019	576.271	NaN	572.271	576.019	576.271	NaN
576.251	4	rest.jpg	NaN	NaN	576.251	580	580.251	NaN	576.251	580	580.251	NaN
580.256	4	rest.jpg	NaN	NaN	580.256	584.01	584.256	NaN	580.256	584.01	584.256	NaN
584.256	4	Aircraft1_70%_12.jpg	0	0.75	584.256	588.002	585.534	0	584.256	588.002	585.534	0
588.249	4	Aircraft2_70%_32.jpg	1	0.75	588.249	591.998	589.973	1	588.249	591.998	589.973	1
592.246	4	Aircraft2_70%_48.jpg	1	0.75	592.246	596.008	593.238	1	592.246	596.008	593.238	1
596.267	4	Aircraft1_70%_19.jpg	0	0.75	596.267	600.018	597.392	0	596.267	600.018	597.392	0
600.264	4	Aircraft1_70%_33.jpg	0	0.75	600.264	604.013	601.183	0	600.264	604.013	601.183	0
604.272	4	rest.jpg	NaN	NaN	604.272	608.026	608.272	NaN	604.272	608.026	608.272	NaN
608.257	4	rest.jpg	NaN	NaN	608.257	612.004	612.257	NaN	608.257	612.004	612.257	NaN
612.245	4	rest.jpg	NaN	NaN	612.245	615.992	616.245	NaN	612.245	615.992	616.245	NaN
616.248	4	Aircraft2_10%_23.jpg	1	0.1	616.248	619.996	617.738	1	616.248	619.996	617.738	1
620.246	4	Aircraft1_10%_28.jpg	0	0.1	620.246	623.993	621.021	0	620.246	623.993	621.021	0
624.256	4	Aircraft2_10%_13.jpg	1	0.1	624.256	628.008	626.072	1	624.256	628.008	626.072	1
628.256	4	Aircraft1_10%_45.jpg	0	0.1	628.256	632.01	628.944	0	628.256	632.01	628.944	0
632.267	4	Aircraft1_10%_37.jpg	0	0.1	632.267	636.017	633.454	0	632.267	636.017	633.454	0
636.279	4	rest.jpg	NaN	NaN	636.279	640.032	640.279	NaN	636.279	640.032	640.279	NaN
640.279	4	rest.jpg	NaN	NaN	640.279	644.028	644.279	NaN	640.279	644.028	644.279	NaN
644.274	4	rest.jpg	NaN	NaN	644.274	648.027	648.274	NaN	644.274	648.027	648.274	NaN
648.283	4	Aircraft2_90%_33.jpg	1	0.9	648.283	652.032	649.627	1	648.283	652.032	649.627	1
652.296	4	Aircraft2_90%_38.jpg	1	0.9	652.296	656.043	653.161	1	652.296	656.043	653.161	1
656.291	4	Aircraft1_90%_30.jpg	0	0.9	656.291	660.04	658.003	0	656.291	660.04	658.003	0
660.3	4	Aircraft1_90%_41.jpg	0	0.9	660.3	664.047	661.256	0	660.3	664.047	661.256	0
664.304	4	Aircraft1_90%_18.jpg	0	0.9	664.304	668.051	665.298	0	664.304	668.051	665.298	0
668.297	4	rest.jpg	NaN	NaN	668.297	672.05	672.297	NaN	668.297	672.05	672.297	NaN
672.295	4	rest.jpg	NaN	NaN	672.295	676.042	676.295	NaN	672.295	676.042	676.295	NaN
676.275	4	rest.jpg	NaN	NaN	676.275	680.029	680.275	NaN	676.275	680.029	680.275	NaN
680.289	4	Aircraft2_70%_9.jpg	1	0.75	680.289	684.042	682.118	1	680.289	684.042	682.118	1
684.288	4	Aircraft2_70%_6.jpg	1	0.75	684.288	688.035	686.093	1	684.288	688.035	686.093	1
688.298	4	Aircraft1_70%_23.jpg	0	0.75	688.298	692.048	690.146	0	688.298	692.048	690.146	0
692.311	4	Aircraft1_70%_21.jpg	0	0.75	692.311	696.06	693.27	0	692.311	696.06	693.27	0
696.315	4	Aircraft2_70%_36.jpg	1	0.75	696.315	700.062	697.078	1	696.315	700.062	697.078	1
700.306	4	rest.jpg	NaN	NaN	700.306	704.059	704.306	NaN	700.306	704.059	704.306	NaN
704.289	4	rest.jpg	NaN	NaN	704.289	708.039	708.289	NaN	704.289	708.039	708.289	NaN
708.271	4	rest.jpg	NaN	NaN	708.271	712.018	712.271	NaN	708.271	712.018	712.271	NaN
712.265	4	Aircraft2_10%_41.jpg	1	0.1	712.265	716.012	713.796	1	712.265	716.012	713.796	1
716.259	4	Aircraft1_10%_22.jpg	0	0.1	716.259	720.011	716.878	0	716.259	720.011	716.878	0
720.262	4	Aircraft1_10%_44.jpg	0	0.1	720.262	724.017	721.023	0	720.262	724.017	721.023	0
724.275	4	Aircraft1_10%_1.jpg	0	0.1	724.275	728.022	724.892	0	724.275	728.022	724.892	0
728.286	4	Aircraft2_10%_37.jpg	1	0.1	728.286	732.033	729.21	1	728.286	732.033	729.21	1
732.279	4	rest.jpg	NaN	NaN	732.279	736.03	736.279	NaN	732.279	736.03	736.279	NaN
736.277	4	rest.jpg	NaN	NaN	736.277	740.029	740.277	NaN	736.277	740.029	740.277	NaN
740.272	4	rest.jpg	NaN	NaN	740.272	744.021	744.272	NaN	740.272	744.021	744.272	NaN
744.266	4	Aircraft2_90%_31.jpg	1	0.9	744.266	748.021	745.384	1	744.266	748.021	745.384	1
748.272	4	Aircraft1_90%_4.jpg	0	0.9	748.272	752.02	749.312	0	748.272	752.02	749.312	0
752.283	4	Aircraft2_90%_20.jpg	1	0.9	752.283	756.033	753.402	1	752.283	756.033	753.402	1
756.278	4	Aircraft1_90%_7.jpg	0	0.9	756.278	760.03	757.495	0	756.278	760.03	757.495	0
760.275	4	Aircraft1_90%_8.jpg	0	0.9	760.275	764.022	761.576	0	760.275	764.022	761.576	0
764.283	4	rest.jpg	NaN	NaN	764.283	768.031	768.283	NaN	764.283	768.031	768.283	NaN
768.268	4	rest.jpg	NaN	NaN	768.268	772.017	772.268	NaN	768.268	772.017	772.268	NaN
772.247	4	rest.jpg	NaN	NaN	772.247	776.004	776.247	NaN	772.247	776.004	776.247	NaN
776.263	4	Aircraft2_70%_14.jpg	1	0.75	776.263	780.016	777.664	1	776.263	780.016	777.664	1
780.265	4	Aircraft2_70%_5.jpg	1	0.75	780.265	784.015	782.206	1	780.265	784.015	782.206	1
784.261	4	Aircraft2_70%_15.jpg	1	0.75	784.261	788.009	786.11	1	784.261	788.009	786.11	1
788.264	4	Aircraft2_70%_19.jpg	1	0.75	788.264	792.019	789.921	1	788.264	792.019	789.921	1
792.279	4	Aircraft1_70%_31.jpg	0	0.75	792.279	796.031	793.035	0	792.279	796.031	793.035	0
796.277	4	rest.jpg	NaN	NaN	796.277	800.028	800.277	NaN	796.277	800.028	800.277	NaN
800.273	4	rest.jpg	NaN	NaN	800.273	804.022	804.273	NaN	800.273	804.022	804.273	NaN
804.264	4	rest.jpg	NaN	NaN	804.264	808.014	808.264	NaN	804.264	808.014	808.264	NaN
808.269	4	Aircraft2_10%_9.jpg	1	0.1	808.269	812.021	809.987	1	808.269	812.021	809.987	1
812.266	4	Aircraft2_10%_6.jpg	1	0.1	812.266	816.016	813.959	1	812.266	816.016	813.959	1
816.277	4	Aircraft1_10%_23.jpg	0	0.1	816.277	820.03	817.944	0	816.277	820.03	817.944	0
820.294	4	Aircraft1_10%_21.jpg	0	0.1	820.294	824.042	821.056	0	820.294	824.042	821.056	0
824.292	4	Aircraft2_10%_36.jpg	1	0.1	824.292	828.041	826.316	1	824.292	828.041	826.316	1
828.287	4	rest.jpg	NaN	NaN	828.287	832.036	832.287	NaN	828.287	832.036	832.287	NaN
832.268	4	rest.jpg	NaN	NaN	832.268	836.017	836.268	NaN	832.268	836.017	836.268	NaN
836.249	4	rest.jpg	NaN	NaN	836.249	839.999	840.249	NaN	836.249	839.999	840.249	NaN
840.248	4	Aircraft2_90%_24.jpg	1	0.9	840.248	844.004	841.602	1	840.248	844.004	841.602	1
844.252	4	Aircraft2_90%_2.jpg	1	0.9	844.252	848.005	846.364	1	844.252	848.005	846.364	1
848.251	4	Aircraft2_90%_43.jpg	1	0.9	848.251	851.998	849.152	1	848.251	851.998	849.152	1
852.246	4	Aircraft2_90%_46.jpg	1	0.9	852.246	855.996	853.99	1	852.246	855.996	853.99	1
856.263	4	Aircraft1_90%_42.jpg	0	0.9	856.263	860.018	857.902	0	856.263	860.018	857.902	0
860.282	4	rest.jpg	NaN	NaN	860.282	864.034	864.282	NaN	860.282	864.034	864.282	NaN
864.266	4	rest.jpg	NaN	NaN	864.266	868.019	868.266	NaN	864.266	868.019	868.266	NaN
868.255	4	rest.jpg	NaN	NaN	868.255	872.005	872.255	NaN	868.255	872.005	872.255	NaN
872.251	4	Aircraft1_70%_3.jpg	0	0.75	872.251	875.998	873.777	0	872.251	875.998	873.777	0
876.256	4	Aircraft2_70%_28.jpg	1	0.75	876.256	880.005	877.887	1	876.256	880.005	877.887	1
880.267	4	Aircraft1_70%_24.jpg	0	0.75	880.267	884.019	881.377	0	880.267	884.019	881.377	0
884.281	4	Aircraft2_70%_39.jpg	1	0.75	884.281	888.033	885.471	1	884.281	888.033	885.471	1
888.294	4	Aircraft2_70%_8.jpg	1	0.75	888.294	892.041	890.009	1	888.294	892.041	890.009	1
892.297	4	rest.jpg	NaN	NaN	892.297	896.051	896.297	NaN	892.297	896.051	896.297	NaN
896.283	4	rest.jpg	NaN	NaN	896.283	900.037	900.283	NaN	896.283	900.037	900.283	NaN
900.285	4	rest.jpg	NaN	NaN	900.285	904.032	904.285	NaN	900.285	904.032	904.285	NaN
904.283	4	Aircraft1_10%_12.jpg	0	0.1	904.283	908.032	906.11	0	904.283	908.032	906.11	0
908.29	4	Aircraft2_10%_32.jpg	1	0.1	908.29	912.044	910.062	1	908.29	912.044	910.062	1
912.29	4	Aircraft2_10%_48.jpg	1	0.1	912.29	916.04	914.159	1	912.29	916.04	914.159	1
916.286	4	Aircraft1_10%_19.jpg	0	0.1	916.286	920.039	917.571	0	916.286	920.039	917.571	0
920.284	4	Aircraft1_10%_33.jpg	0	0.1	920.284	924.036	922.039	0	920.284	924.036	922.039	0
924.282	4	rest.jpg	NaN	NaN	924.282	928.029	928.282	NaN	924.282	928.029	928.282	NaN
928.259	4	rest.jpg	NaN	NaN	928.259	932.012	932.259	NaN	928.259	932.012	932.259	NaN
932.258	4	rest.jpg	NaN	NaN	932.258	936.012	936.258	NaN	932.258	936.012	936.258	NaN
936.271	4	Aircraft1_90%_17.jpg	0	0.9	936.271	940.02	937.647	0	936.271	940.02	937.647	0
940.265	4	Aircraft2_90%_42.jpg	1	0.9	940.265	944.014	941.402	1	940.265	944.014	941.402	1
944.282	4	Aircraft2_90%_44.jpg	1	0.9	944.282	948.031	945.802	1	944.282	948.031	945.802	1
948.293	4	Aircraft1_90%_10.jpg	0	0.9	948.293	952.04	949.308	0	948.293	952.04	949.308	0
952.297	4	Aircraft2_90%_25.jpg	1	0.9	952.297	956.051	954.163	1	952.297	956.051	954.163	1
956.295	4	rest.jpg	NaN	NaN	956.295	960.042	960.295	NaN	956.295	960.042	960.295	NaN
960.286	4	rest.jpg	NaN	NaN	960.286	964.033	964.286	NaN	960.286	964.033	964.286	NaN
964.281	4	rest.jpg	NaN	NaN	964.281	968.029	968.281	NaN	964.281	968.029	968.281	NaN
968.285	4	Aircraft1_70%_25.jpg	0	0.75	968.285	972.037	970.097	0	968.285	972.037	970.097	0
972.298	4	Aircraft2_70%_49.jpg	1	0.75	972.298	976.05	974.062	1	972.298	976.05	974.062	1
976.314	4	Aircraft2_70%_10.jpg	1	0.75	976.314	980.067	977.089	1	976.314	980.067	977.089	1
980.32	4	Aircraft2_70%_12.jpg	1	0.75	980.32	984.067	981.89	1	980.32	984.067	981.89	1
984.33	4	Aircraft2_70%_7.jpg	1	0.75	984.33	988.077	985.82	1	984.33	988.077	985.82	1
988.323	4	rest.jpg	NaN	NaN	988.323	992.069	992.323	NaN	988.323	992.069	992.323	NaN
992.303	4	rest.jpg	NaN	NaN	992.303	996.051	996.303	NaN	992.303	996.051	996.303	NaN
996.284	4	rest.jpg	NaN	NaN	996.284	1000.031	1000.284	NaN	996.284	1000.031	1000.284	NaN
