sub	run	block	trail	oneset	duration	stim_file	stim_lable	level of occlusion	stim_started	stim_stopped	key_time	key_fix
41	2	1	1	40.002	4	Aircraft1_10%_17.jpg	0	0.1	40.002	43.739	41.033	0
41	2	1	2	44.013	4	Aircraft2_10%_42.jpg	1	0.1	44.013	47.747	45.056	1
41	2	1	3	48.019	4	Aircraft2_10%_44.jpg	1	0.1	48.019	51.754	48.877	1
41	2	1	4	52.041	4	Aircraft1_10%_10.jpg	0	0.1	52.041	55.78	52.799	0
41	2	1	5	56.062	4	Aircraft2_10%_25.jpg	1	0.1	56.062	59.793	56.88	1
41	2	1	6	60.08	4	rest.jpg	n/a	n/a	60.08	63.811	64.08	n/a
41	2	1	7	64.045	4	rest.jpg	n/a	n/a	64.045	67.776	68.045	n/a
41	2	1	8	68.022	4	rest.jpg	n/a	n/a	68.022	71.754	72.022	n/a
41	2	2	9	72.033	4	Aircraft1_90%_12.jpg	0	0.9	72.033	75.767	74.432	0
41	2	2	10	76.04	4	Aircraft2_90%_32.jpg	1	0.9	76.04	79.777	77.747	1
41	2	2	11	80.043	4	Aircraft2_90%_48.jpg	1	0.9	80.043	83.781	81.851	1
41	2	2	12	84.069	4	Aircraft1_90%_19.jpg	0	0.9	84.069	87.801	85.116	0
41	2	2	13	88.086	4	Aircraft1_90%_33.jpg	0	0.9	88.086	91.815	89.59	0
41	2	2	14	92.088	4	rest.jpg	n/a	n/a	92.088	95.818	96.088	n/a
41	2	2	15	96.071	4	rest.jpg	n/a	n/a	96.071	99.8	100.071	n/a
41	2	2	16	100.034	4	rest.jpg	n/a	n/a	100.034	103.767	104.034	n/a
41	2	3	17	104.058	4	Aircraft2_70%_33.jpg	1	0.75	104.058	107.792	105.95	1
41	2	3	18	108.088	4	Aircraft2_70%_38.jpg	1	0.75	108.088	111.817	109.265	1
41	2	3	19	112.131	4	Aircraft1_70%_30.jpg	0	0.75	112.131	115.86	113.106	0
41	2	3	20	116.149	4	Aircraft1_70%_41.jpg	0	0.75	116.149	119.883	117.123	0
41	2	3	21	120.198	4	Aircraft1_70%_18.jpg	0	0.75	120.198	123.934	121.366	0
41	2	3	22	124.219	4	rest.jpg	n/a	n/a	124.219	127.951	128.219	n/a
41	2	3	23	128.201	4	rest.jpg	n/a	n/a	128.201	131.93	132.201	n/a
41	2	3	24	132.166	4	rest.jpg	n/a	n/a	132.166	135.903	136.166	n/a
41	2	4	25	136.186	4	Aircraft2_10%_24.jpg	1	0.1	136.186	139.915	137.108	1
41	2	4	26	140.192	4	Aircraft2_10%_2.jpg	1	0.1	140.192	143.926	140.969	1
41	2	4	27	144.224	4	Aircraft2_10%_43.jpg	1	0.1	144.224	147.953	144.987	1
41	2	4	28	148.244	4	Aircraft2_10%_46.jpg	1	0.1	148.244	151.982	148.898	1
41	2	4	29	152.257	4	Aircraft1_10%_42.jpg	0	0.1	152.257	155.992	153.028	0
41	2	4	30	156.281	4	rest.jpg	n/a	n/a	156.281	160.01	160.281	n/a
41	2	4	31	160.248	4	rest.jpg	n/a	n/a	160.248	163.983	164.248	n/a
41	2	4	32	164.23	4	rest.jpg	n/a	n/a	164.23	167.964	168.23	n/a
41	2	5	33	168.251	4	Aircraft2_90%_9.jpg	1	0.9	168.251	171.985	170.117	1
41	2	5	34	172.255	4	Aircraft2_90%_6.jpg	1	0.9	172.255	175.984	174.096	1
41	2	5	35	176.255	4	Aircraft1_90%_23.jpg	0	0.9	176.255	179.989	177.502	0
41	2	5	36	180.268	4	Aircraft1_90%_21.jpg	0	0.9	180.268	184.001	181.502	0
41	2	5	37	184.283	4	Aircraft2_90%_36.jpg	1	0.9	184.283	188.021	186.048	1
41	2	5	38	188.308	4	rest.jpg	n/a	n/a	188.308	192.043	192.308	n/a
41	2	5	39	192.275	4	rest.jpg	n/a	n/a	192.275	196.01	196.275	n/a
41	2	5	40	196.252	4	rest.jpg	n/a	n/a	196.252	199.981	200.252	n/a
41	2	6	41	200.278	4	Aircraft2_70%_31.jpg	1	0.75	200.278	204.014	202.375	1
41	2	6	42	204.308	4	Aircraft1_70%_4.jpg	0	0.75	204.308	208.044	205.221	0
41	2	6	43	208.335	4	Aircraft2_70%_20.jpg	1	0.75	208.335	212.064	209.859	1
41	2	6	44	212.354	4	Aircraft1_70%_7.jpg	0	0.75	212.354	216.083	213.476	0
41	2	6	45	216.368	4	Aircraft1_70%_8.jpg	0	0.75	216.368	220.101	217.229	0
41	2	6	46	220.387	4	rest.jpg	n/a	n/a	220.387	224.118	224.387	n/a
41	2	6	47	224.366	4	rest.jpg	n/a	n/a	224.366	228.099	228.366	n/a
41	2	6	48	228.331	4	rest.jpg	n/a	n/a	228.331	232.061	232.331	n/a
41	2	7	49	232.369	4	Aircraft2_10%_31.jpg	1	0.1	232.369	236.106	233.518	1
41	2	7	50	236.393	4	Aircraft1_10%_4.jpg	0	0.1	236.393	240.128	237.222	0
41	2	7	51	240.403	4	Aircraft2_10%_20.jpg	1	0.1	240.403	244.133	241.387	1
41	2	7	52	244.454	4	Aircraft1_10%_7.jpg	0	0.1	244.454	248.19	245.392	0
41	2	7	53	248.47	4	Aircraft1_10%_8.jpg	0	0.1	248.47	252.205	249.086	0
41	2	7	54	252.476	4	rest.jpg	n/a	n/a	252.476	256.204	256.476	n/a
41	2	7	55	256.44	4	rest.jpg	n/a	n/a	256.44	260.175	260.44	n/a
41	2	7	56	260.407	4	rest.jpg	n/a	n/a	260.407	264.137	264.407	n/a
41	2	8	57	264.407	4	Aircraft2_90%_41.jpg	1	0.9	264.407	268.142	266.476	1
41	2	8	58	268.42	4	Aircraft1_90%_22.jpg	0	0.9	268.42	272.149	269.516	0
41	2	8	59	272.419	4	Aircraft1_90%_44.jpg	0	0.9	272.419	276.153	274.322	0
41	2	8	60	276.422	4	Aircraft1_90%_1.jpg	0	0.9	276.422	280.156	278.273	0
41	2	8	61	280.442	4	Aircraft2_90%_37.jpg	1	0.9	280.442	284.173	282.187	1
41	2	8	62	284.444	4	rest.jpg	n/a	n/a	284.444	288.173	288.444	n/a
41	2	8	63	288.422	4	rest.jpg	n/a	n/a	288.422	292.157	292.422	n/a
41	2	8	64	292.389	4	rest.jpg	n/a	n/a	292.389	296.118	296.389	n/a
41	2	9	65	296.391	4	Aircraft2_70%_41.jpg	1	0.75	296.391	300.12	297.574	1
41	2	9	66	300.405	4	Aircraft1_70%_22.jpg	0	0.75	300.405	304.136	301.491	0
41	2	9	67	304.412	4	Aircraft1_70%_44.jpg	0	0.75	304.412	308.147	306.079	0
41	2	9	68	308.438	4	Aircraft1_70%_1.jpg	0	0.75	308.438	312.167	310.158	0
41	2	9	69	312.466	4	Aircraft2_70%_37.jpg	1	0.75	312.466	316.195	313.776	1
41	2	9	70	316.468	4	rest.jpg	n/a	n/a	316.468	320.197	320.468	n/a
41	2	9	71	320.447	4	rest.jpg	n/a	n/a	320.447	324.175	324.447	n/a
41	2	9	72	324.405	4	rest.jpg	n/a	n/a	324.405	328.14	328.405	n/a
41	2	10	73	328.41	4	Aircraft2_10%_33.jpg	1	0.1	328.41	332.144	329.713	1
41	2	10	74	332.413	4	Aircraft2_10%_38.jpg	1	0.1	332.413	336.147	333.635	1
41	2	10	75	336.42	4	Aircraft1_10%_30.jpg	0	0.1	336.42	340.152	337.513	0
41	2	10	76	340.424	4	Aircraft1_10%_41.jpg	0	0.1	340.424	344.153	341.162	0
41	2	10	77	344.434	4	Aircraft1_10%_18.jpg	0	0.1	344.434	348.17	345.071	0
41	2	10	78	348.435	4	rest.jpg	n/a	n/a	348.435	352.167	352.435	n/a
41	2	10	79	352.399	4	rest.jpg	n/a	n/a	352.399	356.131	356.399	n/a
41	2	10	80	356.363	4	rest.jpg	n/a	n/a	356.363	360.097	360.363	n/a
41	2	11	81	360.359	4	Aircraft2_90%_23.jpg	1	0.9	360.359	364.088	361.904	1
41	2	11	82	364.365	4	Aircraft1_90%_28.jpg	0	0.9	364.365	368.097	365.182	0
41	2	11	83	368.362	4	Aircraft2_90%_13.jpg	1	0.9	368.362	372.096	369.503	1
41	2	11	84	372.363	4	Aircraft1_90%_45.jpg	0	0.9	372.363	376.092	373.333	0
41	2	11	85	376.375	4	Aircraft1_90%_37.jpg	0	0.9	376.375	380.104	377.602	0
41	2	11	86	380.377	4	rest.jpg	n/a	n/a	380.377	384.109	384.377	n/a
41	2	11	87	384.343	4	rest.jpg	n/a	n/a	384.343	388.074	388.343	n/a
41	2	11	88	388.308	4	rest.jpg	n/a	n/a	388.308	392.04	392.308	n/a
41	2	12	89	392.325	4	Aircraft1_70%_2.jpg	0	0.75	392.325	396.055	393.374	0
41	2	12	90	396.341	4	Aircraft1_70%_39.jpg	0	0.75	396.341	400.077	397.7	0
41	2	12	91	400.362	4	Aircraft2_70%_26.jpg	1	0.75	400.362	404.091	401.498	1
41	2	12	92	404.378	4	Aircraft1_70%_15.jpg	0	0.75	404.378	408.114	405.368	0
41	2	12	93	408.401	4	Aircraft2_70%_16.jpg	1	0.75	408.401	412.132	409.358	1
41	2	12	94	412.403	4	rest.jpg	n/a	n/a	412.403	416.132	416.403	n/a
41	2	12	95	416.375	4	rest.jpg	n/a	n/a	416.375	420.109	420.375	n/a
41	2	12	96	420.358	4	rest.jpg	n/a	n/a	420.358	424.089	424.358	n/a
41	2	13	97	424.366	4	Aircraft2_10%_4.jpg	1	0.1	424.366	428.101	425.428	1
41	2	13	98	428.377	4	Aircraft1_10%_43.jpg	0	0.1	428.377	432.107	429.282	0
41	2	13	99	432.384	4	Aircraft1_10%_9.jpg	0	0.1	432.384	436.116	433.098	0
41	2	13	100	436.393	4	Aircraft1_10%_11.jpg	0	0.1	436.393	440.127	436.924	0
41	2	13	101	440.404	4	Aircraft1_10%_50.jpg	0	0.1	440.404	444.141	441.017	0
41	2	13	102	444.424	4	rest.jpg	n/a	n/a	444.424	448.153	448.424	n/a
41	2	13	103	448.386	4	rest.jpg	n/a	n/a	448.386	452.115	452.386	n/a
41	2	13	104	452.365	4	rest.jpg	n/a	n/a	452.365	456.095	456.365	n/a
41	2	14	105	456.378	4	Aircraft1_90%_38.jpg	0	0.9	456.378	460.112	457.712	0
41	2	14	106	460.395	4	Aircraft2_90%_21.jpg	1	0.9	460.395	464.129	461.933	1
41	2	14	107	464.399	4	Aircraft1_90%_16.jpg	0	0.9	464.399	468.129	466.212	0
41	2	14	108	468.413	4	Aircraft1_90%_46.jpg	0	0.9	468.413	472.148	470.399	0
41	2	14	109	472.431	4	Aircraft2_90%_40.jpg	1	0.9	472.431	476.167	473.115	1
41	2	14	110	476.451	4	rest.jpg	n/a	n/a	476.451	480.186	480.451	n/a
41	2	14	111	480.42	4	rest.jpg	n/a	n/a	480.42	484.151	484.42	n/a
41	2	14	112	484.385	4	rest.jpg	n/a	n/a	484.385	488.12	488.385	n/a
41	2	15	113	488.402	4	Aircraft1_70%_36.jpg	0	0.75	488.402	492.136	489.636	0
41	2	15	114	492.426	4	Aircraft1_70%_35.jpg	0	0.75	492.426	496.156	493.25	0
41	2	15	115	496.432	4	Aircraft2_70%_3.jpg	1	0.75	496.432	500.163	498.035	1
41	2	15	116	500.433	4	Aircraft1_70%_5.jpg	0	0.75	500.433	504.162	502.709	0
41	2	15	117	504.451	4	Aircraft1_70%_48.jpg	0	0.75	504.451	508.18	505.715	0
41	2	15	118	508.448	4	rest.jpg	n/a	n/a	508.448	512.177	512.448	n/a
41	2	15	119	512.41	4	rest.jpg	n/a	n/a	512.41	516.139	516.41	n/a
41	2	15	120	516.374	4	rest.jpg	n/a	n/a	516.374	520.108	520.374	n/a
41	2	16	121	520.389	4	Aircraft2_10%_18.jpg	1	0.1	520.389	524.121	522.088	1
41	2	16	122	524.392	4	Aircraft1_10%_29.jpg	0	0.1	524.392	528.121	525.403	0
41	2	16	123	528.409	4	Aircraft2_10%_1.jpg	1	0.1	528.409	532.141	529.257	1
41	2	16	124	532.434	4	Aircraft1_10%_26.jpg	0	0.1	532.434	536.162	533.112	0
41	2	16	125	536.445	4	Aircraft2_10%_34.jpg	1	0.1	536.445	540.176	537.223	1
41	2	16	126	540.457	4	rest.jpg	n/a	n/a	540.457	544.193	544.457	n/a
41	2	16	127	544.425	4	rest.jpg	n/a	n/a	544.425	548.154	548.425	n/a
41	2	16	128	548.4	4	rest.jpg	n/a	n/a	548.4	552.129	552.4	n/a
41	2	17	129	552.399	4	Aircraft2_90%_30.jpg	1	0.9	552.399	556.128	553.54	1
41	2	17	130	556.396	4	Aircraft2_90%_27.jpg	1	0.9	556.396	560.128	557.927	1
41	2	17	131	560.407	4	Aircraft2_90%_50.jpg	1	0.9	560.407	564.136	561.799	1
41	2	17	132	564.416	4	Aircraft2_90%_29.jpg	1	0.9	564.416	568.145	566.009	1
41	2	17	133	568.425	4	Aircraft1_90%_6.jpg	0	0.9	568.425	572.155	569.631	0
41	2	17	134	572.419	4	rest.jpg	n/a	n/a	572.419	576.153	576.419	n/a
41	2	17	135	576.401	4	rest.jpg	n/a	n/a	576.401	580.132	580.401	n/a
41	2	17	136	580.375	4	rest.jpg	n/a	n/a	580.375	584.107	584.375	n/a
41	2	18	137	584.386	4	Aircraft2_70%_17.jpg	1	0.75	584.386	588.118	585.649	1
41	2	18	138	588.383	4	Aircraft2_70%_11.jpg	1	0.75	588.383	592.118	589.901	1
41	2	18	139	592.399	4	Aircraft1_70%_20.jpg	0	0.75	592.399	596.129	593.83	0
41	2	18	140	596.414	4	Aircraft2_70%_47.jpg	1	0.75	596.414	600.143	597.327	1
41	2	18	141	600.413	4	Aircraft2_70%_45.jpg	1	0.75	600.413	604.148	602.166	1
41	2	18	142	604.43	4	rest.jpg	n/a	n/a	604.43	608.165	608.43	n/a
41	2	18	143	608.413	4	rest.jpg	n/a	n/a	608.413	612.148	612.413	n/a
41	2	18	144	612.378	4	rest.jpg	n/a	n/a	612.378	616.112	616.378	n/a
41	2	19	145	616.399	4	Aircraft1_10%_32.jpg	0	0.1	616.399	620.135	617.244	0
41	2	19	146	620.404	4	Aircraft1_10%_49.jpg	0	0.1	620.404	624.139	621.357	0
41	2	19	147	624.414	4	Aircraft2_10%_22.jpg	1	0.1	624.414	628.146	625.374	1
41	2	19	148	628.412	4	Aircraft1_10%_34.jpg	0	0.1	628.412	632.143	629.308	0
41	2	19	149	632.415	4	Aircraft1_10%_14.jpg	0	0.1	632.415	636.151	633.026	0
41	2	19	150	636.434	4	rest.jpg	n/a	n/a	636.434	640.168	640.434	n/a
41	2	19	151	640.4	4	rest.jpg	n/a	n/a	640.4	644.13	644.4	n/a
41	2	19	152	644.378	4	rest.jpg	n/a	n/a	644.378	648.11	648.378	n/a
41	2	20	153	648.385	4	Aircraft1_90%_1.jpg	0	0.9	648.385	652.114	649.835	0
41	2	20	154	652.391	4	Aircraft1_90%_47.jpg	0	0.9	652.391	656.12	653.728	0
41	2	20	155	656.395	4	Aircraft1_90%_40.jpg	0	0.9	656.395	660.125	657.115	0
41	2	20	156	660.404	4	Aircraft1_90%_27.jpg	0	0.9	660.404	664.135	662.098	0
41	2	20	157	664.4	4	Aircraft2_90%_35.jpg	1	0.9	664.4	668.129	666.407	1
41	2	20	158	668.412	4	rest.jpg	n/a	n/a	668.412	672.143	672.412	n/a
41	2	20	159	672.375	4	rest.jpg	n/a	n/a	672.375	676.106	676.375	n/a
41	2	20	160	676.338	4	rest.jpg	n/a	n/a	676.338	680.07	680.338	n/a
41	2	21	161	680.338	4	Aircraft2_70%_23.jpg	1	0.75	680.338	684.067	681.839	1
41	2	21	162	684.334	4	Aircraft1_70%_28.jpg	0	0.75	684.334	688.069	685.605	0
41	2	21	163	688.35	4	Aircraft2_70%_13.jpg	1	0.75	688.35	692.079	689.294	1
41	2	21	164	692.363	4	Aircraft1_70%_45.jpg	0	0.75	692.363	696.093	693.641	0
41	2	21	165	696.363	4	Aircraft1_70%_37.jpg	0	0.75	696.363	700.096	697.501	0
41	2	21	166	700.361	4	rest.jpg	n/a	n/a	700.361	704.091	704.361	n/a
41	2	21	167	704.335	4	rest.jpg	n/a	n/a	704.335	708.065	708.335	n/a
41	2	21	168	708.315	4	rest.jpg	n/a	n/a	708.315	712.049	712.315	n/a
41	2	22	169	712.32	4	Aircraft1_10%_25.jpg	0	0.1	712.32	716.052	713.338	0
41	2	22	170	716.338	4	Aircraft2_10%_49.jpg	1	0.1	716.338	720.072	717.724	1
41	2	22	171	720.359	4	Aircraft2_10%_10.jpg	1	0.1	720.359	724.094	721.39	1
41	2	22	172	724.368	4	Aircraft2_10%_12.jpg	1	0.1	724.368	728.1	725.34	1
41	2	22	173	728.373	4	Aircraft2_10%_7.jpg	1	0.1	728.373	732.104	729.258	1
41	2	22	174	732.386	4	rest.jpg	n/a	n/a	732.386	736.123	736.386	n/a
41	2	22	175	736.357	4	rest.jpg	n/a	n/a	736.357	740.086	740.357	n/a
41	2	22	176	740.332	4	rest.jpg	n/a	n/a	740.332	744.067	744.332	n/a
41	2	23	177	744.337	4	Aircraft2_90%_17.jpg	1	0.9	744.337	748.072	745.667	1
41	2	23	178	748.341	4	Aircraft2_90%_11.jpg	1	0.9	748.341	752.075	750.04	1
41	2	23	179	752.345	4	Aircraft1_90%_20.jpg	0	0.9	752.345	756.075	753.77	0
41	2	23	180	756.355	4	Aircraft2_90%_47.jpg	1	0.9	756.355	760.084	758.146	1
41	2	23	181	760.365	4	Aircraft2_90%_45.jpg	1	0.9	760.365	764.102	761.498	1
41	2	23	182	764.391	4	rest.jpg	n/a	n/a	764.391	768.125	768.391	n/a
41	2	23	183	768.359	4	rest.jpg	n/a	n/a	768.359	772.094	772.359	n/a
41	2	23	184	772.328	4	rest.jpg	n/a	n/a	772.328	776.063	776.328	n/a
41	2	24	185	776.332	4	Aircraft1_70%_38.jpg	0	0.75	776.332	780.07	777.604	0
41	2	24	186	780.339	4	Aircraft2_70%_21.jpg	1	0.75	780.339	784.073	781.297	1
41	2	24	187	784.347	4	Aircraft1_70%_16.jpg	0	0.75	784.347	788.079	785.473	0
41	2	24	188	788.366	4	Aircraft1_70%_46.jpg	0	0.75	788.366	792.097	789.158	0
41	2	24	189	792.386	4	Aircraft2_70%_40.jpg	1	0.75	792.386	796.115	793.57	1
41	2	24	190	796.385	4	rest.jpg	n/a	n/a	796.385	800.117	800.385	n/a
41	2	24	191	800.362	4	rest.jpg	n/a	n/a	800.362	804.091	804.362	n/a
41	2	24	192	804.325	4	rest.jpg	n/a	n/a	804.325	808.054	808.325	n/a
41	2	25	193	808.332	4	Aircraft1_10%_3.jpg	0	0.1	808.332	812.063	809.108	0
41	2	25	194	812.337	4	Aircraft2_10%_28.jpg	1	0.1	812.337	816.066	813.228	1
41	2	25	195	816.346	4	Aircraft1_10%_24.jpg	0	0.1	816.346	820.079	817.039	0
41	2	25	196	820.367	4	Aircraft2_10%_39.jpg	1	0.1	820.367	824.097	821.338	1
41	2	25	197	824.384	4	Aircraft2_10%_8.jpg	1	0.1	824.384	828.114	825.4	1
41	2	25	198	828.383	4	rest.jpg	n/a	n/a	828.383	832.113	832.383	n/a
41	2	25	199	832.364	4	rest.jpg	n/a	n/a	832.364	836.1	836.364	n/a
41	2	25	200	836.351	4	rest.jpg	n/a	n/a	836.351	840.08	840.351	n/a
41	2	26	201	840.35	4	Aircraft1_90%_36.jpg	0	0.9	840.35	844.085	841.913	0
41	2	26	202	844.37	4	Aircraft1_90%_35.jpg	0	0.9	844.37	848.106	845.223	0
41	2	26	203	848.39	4	Aircraft2_90%_3.jpg	1	0.9	848.39	852.119	849.101	1
41	2	26	204	852.388	4	Aircraft1_90%_5.jpg	0	0.9	852.388	856.119	853.336	0
41	2	26	205	856.399	4	Aircraft1_90%_48.jpg	0	0.9	856.399	860.134	857.542	0
41	2	26	206	860.42	4	rest.jpg	n/a	n/a	860.42	864.156	864.42	n/a
41	2	26	207	864.406	4	rest.jpg	n/a	n/a	864.406	868.137	868.406	n/a
41	2	26	208	868.371	4	rest.jpg	n/a	n/a	868.371	872.101	872.371	n/a
41	2	27	209	872.395	4	Aircraft2_70%_30.jpg	1	0.75	872.395	876.124	873.467	1
41	2	27	210	876.414	4	Aircraft2_70%_27.jpg	1	0.75	876.414	880.146	877.224	1
41	2	27	211	880.43	4	Aircraft2_70%_50.jpg	1	0.75	880.43	884.162	881.32	1
41	2	27	212	884.431	4	Aircraft2_70%_29.jpg	1	0.75	884.431	888.162	885.403	1
41	2	27	213	888.447	4	Aircraft1_70%_6.jpg	0	0.75	888.447	892.176	889.711	0
41	2	27	214	892.461	4	rest.jpg	n/a	n/a	892.461	896.193	896.461	n/a
41	2	27	215	896.441	4	rest.jpg	n/a	n/a	896.441	900.17	900.441	n/a
41	2	27	216	900.404	4	rest.jpg	n/a	n/a	900.404	904.141	904.404	n/a
41	2	28	217	904.417	4	Aircraft2_10%_14.jpg	1	0.1	904.417	908.146	905.28	1
41	2	28	218	908.429	4	Aircraft2_10%_5.jpg	1	0.1	908.429	912.167	908.99	1
41	2	28	219	912.454	4	Aircraft2_10%_15.jpg	1	0.1	912.454	916.186	913.426	1
41	2	28	220	916.457	4	Aircraft2_10%_19.jpg	1	0.1	916.457	920.192	917.34	1
41	2	28	221	920.472	4	Aircraft1_10%_31.jpg	0	0.1	920.472	924.205	921.412	0
41	2	28	222	924.484	4	rest.jpg	n/a	n/a	924.484	928.22	928.484	n/a
41	2	28	223	928.45	4	rest.jpg	n/a	n/a	928.45	932.186	932.45	n/a
41	2	28	224	932.438	4	rest.jpg	n/a	n/a	932.438	936.169	936.438	n/a
41	2	29	225	936.432	4	Aircraft1_90%_2.jpg	0	0.9	936.432	940.167	937.815	0
41	2	29	226	940.445	4	Aircraft1_90%_39.jpg	0	0.9	940.445	944.179	942.012	0
41	2	29	227	944.444	4	Aircraft2_90%_26.jpg	1	0.9	944.444	948.179	946.471	1
41	2	29	228	948.459	4	Aircraft1_90%_15.jpg	0	0.9	948.459	952.19	950.585	0
41	2	29	229	952.454	4	Aircraft2_90%_16.jpg	1	0.9	952.454	956.19	954.425	1
41	2	29	230	956.474	4	rest.jpg	n/a	n/a	956.474	960.207	960.474	n/a
41	2	29	231	960.454	4	rest.jpg	n/a	n/a	960.454	964.19	964.454	n/a
41	2	29	232	964.42	4	rest.jpg	n/a	n/a	964.42	968.149	968.42	n/a
41	2	30	233	968.417	4	Aircraft1_70%_1.jpg	0	0.75	968.417	972.148	969.935	0
41	2	30	234	972.435	4	Aircraft1_70%_47.jpg	0	0.75	972.435	976.164	973.976	0
41	2	30	235	976.44	4	Aircraft1_70%_40.jpg	0	0.75	976.44	980.177	977.179	0
41	2	30	236	980.464	4	Aircraft1_70%_27.jpg	0	0.75	980.464	984.195	981.544	0
41	2	30	237	984.47	4	Aircraft2_70%_35.jpg	1	0.75	984.47	988.199	985.481	1
41	2	30	238	988.487	4	rest.jpg	n/a	n/a	988.487	992.221	992.487	n/a
41	2	30	239	992.459	4	rest.jpg	n/a	n/a	992.459	996.192	996.459	n/a
41	2	30	240	996.424	4	rest.jpg	n/a	n/a	996.424	1000.158	1000.424	n/a
