onset	duration	stim_file	stim_lable	levelOfOcclusion	stim_started	stim_stopped	key_time	key_fix	stim_started_1	stim_stopped_1	key_time_1	key_fix_1
40.048	4	Aircraft1_10%_2.jpg	0	0.1	40.048	43.783	42.196	0	40.048	43.783	42.196	0
44.099	4	Aircraft1_10%_39.jpg	0	0.1	44.099	47.835	45.587	0	44.099	47.835	45.587	0
48.141	4	Aircraft2_10%_26.jpg	1	0.1	48.141	51.871	49.857	1	48.141	51.871	49.857	1
52.2	4	Aircraft1_10%_15.jpg	0	0.1	52.2	55.937	53.134	0	52.2	55.937	53.134	0
56.26	4	Aircraft2_10%_16.jpg	1	0.1	56.26	59.996	57.55	1	56.26	59.996	57.55	1
60.27	4	rest.jpg	NaN	NaN	60.27	64	64.27	NaN	60.27	64	64.27	NaN
64.235	4	rest.jpg	NaN	NaN	64.235	67.971	68.235	NaN	64.235	67.971	68.235	NaN
68.222	4	rest.jpg	NaN	NaN	68.222	71.952	72.222	NaN	68.222	71.952	72.222	NaN
72.248	4	Aircraft2_90%_14.jpg	1	0.9	72.248	75.98	76.248	1	72.248	75.98	76.248	1
76.301	4	Aircraft2_90%_5.jpg	1	0.9	76.301	80.039	78.645	1	76.301	80.039	78.645	1
80.323	4	Aircraft2_90%_15.jpg	1	0.9	80.323	84.054	83.388	1	80.323	84.054	83.388	1
84.374	4	Aircraft2_90%_19.jpg	1	0.9	84.374	88.109	87.694	1	84.374	88.109	87.694	1
88.427	4	Aircraft1_90%_31.jpg	0	0.9	88.427	92.157	91.721	0	88.427	92.157	91.721	0
92.452	4	rest.jpg	NaN	NaN	92.452	96.182	96.452	NaN	92.452	96.182	96.452	NaN
96.416	4	rest.jpg	NaN	NaN	96.416	100.151	100.416	NaN	96.416	100.151	100.416	NaN
100.395	4	rest.jpg	NaN	NaN	100.395	104.125	104.395	NaN	100.395	104.125	104.395	NaN
104.41	4	Aircraft2_70%_4.jpg	1	0.75	104.41	108.14	107.483	1	104.41	108.14	107.483	1
108.413	4	Aircraft1_70%_43.jpg	0	0.75	108.413	112.143	110.784	0	108.413	112.143	110.784	0
112.458	4	Aircraft1_70%_9.jpg	0	0.75	112.458	116.191	116.458	0	112.458	116.191	116.458	0
116.471	4	Aircraft1_70%_11.jpg	0	0.75	116.471	120.206	116.823	0	116.471	120.206	116.823	0
120.528	4	Aircraft1_70%_50.jpg	0	0.75	120.528	124.26	123.41	0	120.528	124.26	123.41	0
124.533	4	rest.jpg	NaN	NaN	124.533	128.264	128.533	NaN	124.533	128.264	128.533	NaN
128.498	4	rest.jpg	NaN	NaN	128.498	132.234	132.498	NaN	128.498	132.234	132.498	NaN
132.483	4	rest.jpg	NaN	NaN	132.483	136.213	136.483	NaN	132.483	136.213	136.483	NaN
136.498	4	Aircraft1_10%_36.jpg	0	0.1	136.498	140.227	139.009	0	136.498	140.227	139.009	0
140.509	4	Aircraft1_10%_35.jpg	0	0.1	140.509	144.241	141.403	0	140.509	144.241	141.403	0
144.562	4	Aircraft2_10%_3.jpg	1	0.1	144.562	148.295	145.572	1	144.562	148.295	145.572	1
148.616	4	Aircraft1_10%_5.jpg	0	0.1	148.616	152.352	150.958	0	148.616	152.352	150.958	0
152.641	4	Aircraft1_10%_48.jpg	0	0.1	152.641	156.377	154.223	0	152.641	156.377	154.223	0
156.667	4	rest.jpg	NaN	NaN	156.667	160.404	160.667	NaN	156.667	160.404	160.667	NaN
160.654	4	rest.jpg	NaN	NaN	160.654	164.391	164.654	NaN	160.654	164.391	164.654	NaN
164.643	4	rest.jpg	NaN	NaN	164.643	168.379	168.643	NaN	164.643	168.379	168.643	NaN
168.661	4	Aircraft1_90%_3.jpg	0	0.9	168.661	172.392	171.116	0	168.661	172.392	171.116	0
172.698	4	Aircraft2_90%_28.jpg	1	0.9	172.698	176.427	175.062	1	172.698	176.427	175.062	1
176.722	4	Aircraft1_90%_24.jpg	0	0.9	176.722	180.455	179.32	0	176.722	180.455	179.32	0
180.754	4	Aircraft2_90%_39.jpg	1	0.9	180.754	184.486	183.752	1	180.754	184.486	183.752	1
184.792	4	Aircraft2_90%_8.jpg	1	0.9	184.792	188.525	186.881	1	184.792	188.525	186.881	1
188.81	4	rest.jpg	NaN	NaN	188.81	192.547	192.81	NaN	188.81	192.547	192.81	NaN
192.792	4	rest.jpg	NaN	NaN	192.792	196.527	196.792	NaN	192.792	196.527	196.792	NaN
196.762	4	rest.jpg	NaN	NaN	196.762	200.497	200.762	NaN	196.762	200.497	200.762	NaN
200.771	4	Aircraft2_70%_18.jpg	1	0.75	200.771	204.501	203.043	1	200.771	204.501	203.043	1
204.79	4	Aircraft1_70%_29.jpg	0	0.75	204.79	208.52	206.82	0	204.79	208.52	206.82	0
208.846	4	Aircraft2_70%_1.jpg	1	0.75	208.846	212.575	211.745	1	208.846	212.575	211.745	1
212.898	4	Aircraft1_70%_26.jpg	0	0.75	212.898	216.631	214.033	0	212.898	216.631	214.033	0
216.949	4	Aircraft2_70%_34.jpg	1	0.75	216.949	220.679	220.015	1	216.949	220.679	220.015	1
220.966	4	rest.jpg	NaN	NaN	220.966	224.703	224.966	NaN	220.966	224.703	224.966	NaN
224.937	4	rest.jpg	NaN	NaN	224.937	228.675	228.937	NaN	224.937	228.675	228.937	NaN
228.909	4	rest.jpg	NaN	NaN	228.909	232.646	232.909	NaN	228.909	232.646	232.909	NaN
232.924	4	Aircraft2_10%_17.jpg	1	0.1	232.924	236.661	234.646	1	232.924	236.661	234.646	1
236.988	4	Aircraft2_10%_11.jpg	1	0.1	236.988	240.72	238.049	1	236.988	240.72	238.049	1
241.027	4	Aircraft1_10%_20.jpg	0	0.1	241.027	244.763	242.099	0	241.027	244.763	242.099	0
245.084	4	Aircraft2_10%_47.jpg	1	0.1	245.084	248.821	246.074	1	245.084	248.821	246.074	1
249.128	4	Aircraft2_10%_45.jpg	1	0.1	249.128	252.865	249.922	1	249.128	252.865	249.922	1
253.156	4	rest.jpg	NaN	NaN	253.156	256.886	257.156	NaN	253.156	256.886	257.156	NaN
257.136	4	rest.jpg	NaN	NaN	257.136	260.868	261.136	NaN	257.136	260.868	261.136	NaN
261.118	4	rest.jpg	NaN	NaN	261.118	264.854	265.118	NaN	261.118	264.854	265.118	NaN
265.163	4	Aircraft1_90%_25.jpg	0	0.9	265.163	268.9	266.949	0	265.163	268.9	266.949	0
269.208	4	Aircraft2_90%_49.jpg	1	0.9	269.208	272.944	271.821	1	269.208	272.944	271.821	1
273.253	4	Aircraft2_90%_10.jpg	1	0.9	273.253	276.99	274.985	1	273.253	276.99	274.985	1
277.272	4	Aircraft2_90%_12.jpg	1	0.9	277.272	281.007	279.756	1	277.272	281.007	279.756	1
281.319	4	Aircraft2_90%_7.jpg	1	0.9	281.319	285.054	283.227	1	281.319	285.054	283.227	1
285.322	4	rest.jpg	NaN	NaN	285.322	289.053	289.322	NaN	285.322	289.053	289.322	NaN
289.287	4	rest.jpg	NaN	NaN	289.287	293.023	293.287	NaN	289.287	293.023	293.287	NaN
293.272	4	rest.jpg	NaN	NaN	293.272	297.008	297.272	NaN	293.272	297.008	297.272	NaN
297.312	4	Aircraft1_70%_32.jpg	0	0.75	297.312	301.048	298.905	0	297.312	301.048	298.905	0
301.368	4	Aircraft1_70%_49.jpg	0	0.75	301.368	305.099	302.639	0	301.368	305.099	302.639	0
305.379	4	Aircraft2_70%_22.jpg	1	0.75	305.379	309.109	306.841	1	305.379	309.109	306.841	1
309.404	4	Aircraft1_70%_34.jpg	0	0.75	309.404	313.14	311.795	0	309.404	313.14	311.795	0
313.423	4	Aircraft1_70%_14.jpg	0	0.75	313.423	317.156	317.05	0	313.423	317.156	317.05	0
317.428	4	rest.jpg	NaN	NaN	317.428	321.165	321.428	NaN	317.428	321.165	321.428	NaN
321.412	4	rest.jpg	NaN	NaN	321.412	325.148	325.412	NaN	321.412	325.148	325.412	NaN
325.391	4	rest.jpg	NaN	NaN	325.391	329.123	329.391	NaN	325.391	329.123	329.391	NaN
329.414	4	Aircraft1_10%_1.jpg	0	0.1	329.414	333.149	330.772	0	329.414	333.149	330.772	0
333.462	4	Aircraft1_10%_47.jpg	0	0.1	333.462	337.192	334.378	0	333.462	337.192	334.378	0
337.482	4	Aircraft1_10%_40.jpg	0	0.1	337.482	341.212	338.213	0	337.482	341.212	338.213	0
341.539	4	Aircraft1_10%_27.jpg	0	0.1	341.539	345.274	342.964	0	341.539	345.274	342.964	0
345.578	4	Aircraft2_10%_35.jpg	1	0.1	345.578	349.314	347.27	1	345.578	349.314	347.27	1
349.584	4	rest.jpg	NaN	NaN	349.584	353.319	353.584	NaN	349.584	353.319	353.584	NaN
353.568	4	rest.jpg	NaN	NaN	353.568	357.302	357.568	NaN	353.568	357.302	357.568	NaN
357.547	4	rest.jpg	NaN	NaN	357.547	361.277	361.547	NaN	357.547	361.277	361.547	NaN
361.598	4	Aircraft1_90%_32.jpg	0	0.9	361.598	365.333	363.996	0	361.598	365.333	363.996	0
365.649	4	Aircraft1_90%_49.jpg	0	0.9	365.649	369.379	368.046	0	365.649	369.379	368.046	0
369.694	4	Aircraft2_90%_22.jpg	1	0.9	369.694	373.426	372.774	1	369.694	373.426	372.774	1
373.743	4	Aircraft1_90%_34.jpg	0	0.9	373.743	377.478	375.06	0	373.743	377.478	375.06	0
377.774	4	Aircraft1_90%_14.jpg	0	0.9	377.774	381.507	380.997	0	377.774	381.507	380.997	0
381.792	4	rest.jpg	NaN	NaN	381.792	385.527	385.792	NaN	381.792	385.527	385.792	NaN
385.767	4	rest.jpg	NaN	NaN	385.767	389.503	389.767	NaN	385.767	389.503	389.767	NaN
389.736	4	rest.jpg	NaN	NaN	389.736	393.472	393.736	NaN	389.736	393.472	393.736	NaN
393.788	4	Aircraft2_70%_24.jpg	1	0.75	393.788	397.524	395.668	1	393.788	397.524	395.668	1
397.837	4	Aircraft2_70%_2.jpg	1	0.75	397.837	401.572	399.06	1	397.837	401.572	399.06	1
401.855	4	Aircraft2_70%_43.jpg	1	0.75	401.855	405.591	403.551	1	401.855	405.591	403.551	1
405.888	4	Aircraft2_70%_46.jpg	1	0.75	405.888	409.619	408.558	1	405.888	409.619	408.558	1
409.902	4	Aircraft1_70%_42.jpg	0	0.75	409.902	413.637	411.381	0	409.902	413.637	411.381	0
413.922	4	rest.jpg	NaN	NaN	413.922	417.658	417.922	NaN	413.922	417.658	417.922	NaN
417.892	4	rest.jpg	NaN	NaN	417.892	421.623	421.892	NaN	417.892	421.623	421.892	NaN
421.857	4	rest.jpg	NaN	NaN	421.857	425.591	425.857	NaN	421.857	425.591	425.857	NaN
425.923	4	Aircraft2_10%_30.jpg	1	0.1	425.923	429.653	427.68	1	425.923	429.653	427.68	1
429.922	4	Aircraft2_10%_27.jpg	1	0.1	429.922	433.652	430.716	1	429.922	433.652	430.716	1
433.937	4	Aircraft2_10%_50.jpg	1	0.1	433.937	437.673	434.886	1	433.937	437.673	434.886	1
437.96	4	Aircraft2_10%_29.jpg	1	0.1	437.96	441.695	438.972	1	437.96	441.695	438.972	1
441.987	4	Aircraft1_10%_6.jpg	0	0.1	441.987	445.718	442.803	0	441.987	445.718	442.803	0
446.007	4	rest.jpg	NaN	NaN	446.007	449.741	450.007	NaN	446.007	449.741	450.007	NaN
449.99	4	rest.jpg	NaN	NaN	449.99	453.733	453.99	NaN	449.99	453.733	453.99	NaN
453.988	4	rest.jpg	NaN	NaN	453.988	457.726	457.988	NaN	453.988	457.726	457.988	NaN
458.01	4	Aircraft2_90%_18.jpg	1	0.9	458.01	461.741	460.861	1	458.01	461.741	460.861	1
462.026	4	Aircraft1_90%_29.jpg	0	0.9	462.026	465.761	464.52	0	462.026	465.761	464.52	0
466.026	4	Aircraft2_90%_1.jpg	1	0.9	466.026	469.758	469.173	1	466.026	469.758	469.173	1
470.041	4	Aircraft1_90%_26.jpg	0	0.9	470.041	473.775	472.874	0	470.041	473.775	472.874	0
474.042	4	Aircraft2_90%_34.jpg	1	0.9	474.042	477.775	475.869	1	474.042	477.775	475.869	1
478.048	4	rest.jpg	NaN	NaN	478.048	481.785	482.048	NaN	478.048	481.785	482.048	NaN
482.019	4	rest.jpg	NaN	NaN	482.019	485.752	486.019	NaN	482.019	485.752	486.019	NaN
486.001	4	rest.jpg	NaN	NaN	486.001	489.739	490.001	NaN	486.001	489.739	490.001	NaN
490.012	4	Aircraft1_70%_17.jpg	0	0.75	490.012	493.75	492.268	0	490.012	493.75	492.268	0
494.023	4	Aircraft2_70%_42.jpg	1	0.75	494.023	497.759	496.998	1	494.023	497.759	496.998	1
498.031	4	Aircraft2_70%_44.jpg	1	0.75	498.031	501.766	499.637	1	498.031	501.766	499.637	1
502.059	4	Aircraft1_70%_10.jpg	0	0.75	502.059	505.791	503.068	0	502.059	505.791	503.068	0
506.068	4	Aircraft2_70%_25.jpg	1	0.75	506.068	509.804	509.276	1	506.068	509.804	509.276	1
510.101	4	rest.jpg	NaN	NaN	510.101	513.834	514.101	NaN	510.101	513.834	514.101	NaN
514.087	4	rest.jpg	NaN	NaN	514.087	517.825	518.087	NaN	514.087	517.825	518.087	NaN
518.06	4	rest.jpg	NaN	NaN	518.06	521.796	522.06	NaN	518.06	521.796	522.06	NaN
522.074	4	Aircraft1_10%_38.jpg	0	0.1	522.074	525.804	523.211	0	522.074	525.804	523.211	0
526.101	4	Aircraft2_10%_21.jpg	1	0.1	526.101	529.838	527.011	1	526.101	529.838	527.011	1
530.131	4	Aircraft1_10%_16.jpg	0	0.1	530.131	533.86	531.565	0	530.131	533.86	531.565	0
534.137	4	Aircraft1_10%_46.jpg	0	0.1	534.137	537.867	535.351	0	534.137	537.867	535.351	0
538.14	4	Aircraft2_10%_40.jpg	1	0.1	538.14	541.87	539.051	1	538.14	541.87	539.051	1
542.149	4	rest.jpg	NaN	NaN	542.149	545.879	546.149	NaN	542.149	545.879	546.149	NaN
546.129	4	rest.jpg	NaN	NaN	546.129	549.859	550.129	NaN	546.129	549.859	550.129	NaN
550.112	4	rest.jpg	NaN	NaN	550.112	553.848	554.112	NaN	550.112	553.848	554.112	NaN
554.119	4	Aircraft2_90%_4.jpg	1	0.9	554.119	557.849	556.664	1	554.119	557.849	556.664	1
558.122	4	Aircraft1_90%_43.jpg	0	0.9	558.122	561.852	560.455	0	558.122	561.852	560.455	0
562.14	4	Aircraft1_90%_9.jpg	0	0.9	562.14	565.875	563.866	0	562.14	565.875	563.866	0
566.167	4	Aircraft1_90%_11.jpg	0	0.9	566.167	569.901	569.502	0	566.167	569.901	569.502	0
570.173	4	Aircraft1_90%_50.jpg	0	0.9	570.173	573.903	572.317	0	570.173	573.903	572.317	0
574.199	4	rest.jpg	NaN	NaN	574.199	577.934	578.199	NaN	574.199	577.934	578.199	NaN
578.186	4	rest.jpg	NaN	NaN	578.186	581.916	582.186	NaN	578.186	581.916	582.186	NaN
582.153	4	rest.jpg	NaN	NaN	582.153	585.888	586.153	NaN	582.153	585.888	586.153	NaN
586.164	4	Aircraft1_70%_12.jpg	0	0.75	586.164	589.9	588.371	0	586.164	589.9	588.371	0
590.176	4	Aircraft2_70%_32.jpg	1	0.75	590.176	593.908	592.321	1	590.176	593.908	592.321	1
594.194	4	Aircraft2_70%_48.jpg	1	0.75	594.194	597.926	595.848	1	594.194	597.926	595.848	1
598.208	4	Aircraft1_70%_19.jpg	0	0.75	598.208	601.944	599.788	0	598.208	601.944	599.788	0
602.23	4	Aircraft1_70%_33.jpg	0	0.75	602.23	605.962	606.23	0	602.23	605.962	606.23	0
606.238	4	rest.jpg	NaN	NaN	606.238	609.968	610.238	NaN	606.238	609.968	610.238	NaN
610.223	4	rest.jpg	NaN	NaN	610.223	613.959	614.223	NaN	610.223	613.959	614.223	NaN
614.211	4	rest.jpg	NaN	NaN	614.211	617.941	618.211	NaN	614.211	617.941	618.211	NaN
618.233	4	Aircraft2_10%_23.jpg	1	0.1	618.233	621.963	619.443	1	618.233	621.963	619.443	1
622.256	4	Aircraft1_10%_28.jpg	0	0.1	622.256	625.991	623.237	0	622.256	625.991	623.237	0
626.284	4	Aircraft2_10%_13.jpg	1	0.1	626.284	630.018	627.16	1	626.284	630.018	627.16	1
630.289	4	Aircraft1_10%_45.jpg	0	0.1	630.289	634.021	632.078	0	630.289	634.021	632.078	0
634.316	4	Aircraft1_10%_37.jpg	0	0.1	634.316	638.045	635.788	0	634.316	638.045	635.788	0
638.332	4	rest.jpg	NaN	NaN	638.332	642.062	642.332	NaN	638.332	642.062	642.332	NaN
642.294	4	rest.jpg	NaN	NaN	642.294	646.03	646.294	NaN	642.294	646.03	646.294	NaN
646.264	4	rest.jpg	NaN	NaN	646.264	649.997	650.264	NaN	646.264	649.997	650.264	NaN
650.268	4	Aircraft2_90%_33.jpg	1	0.9	650.268	654.005	652.42	1	650.268	654.005	652.42	1
654.272	4	Aircraft2_90%_38.jpg	1	0.9	654.272	658.009	657.565	1	654.272	658.009	657.565	1
658.276	4	Aircraft1_90%_30.jpg	0	0.9	658.276	662.009	659.573	0	658.276	662.009	659.573	0
662.292	4	Aircraft1_90%_41.jpg	0	0.9	662.292	666.024	664.66	0	662.292	666.024	664.66	0
666.303	4	Aircraft1_90%_18.jpg	0	0.9	666.303	670.036	668.217	0	666.303	670.036	668.217	0
670.324	4	rest.jpg	NaN	NaN	670.324	674.059	674.324	NaN	670.324	674.059	674.324	NaN
674.306	4	rest.jpg	NaN	NaN	674.306	678.038	678.306	NaN	674.306	678.038	678.306	NaN
678.27	4	rest.jpg	NaN	NaN	678.27	682.003	682.27	NaN	678.27	682.003	682.27	NaN
682.275	4	Aircraft2_70%_9.jpg	1	0.75	682.275	686.005	685.101	1	682.275	686.005	685.101	1
686.29	4	Aircraft2_70%_6.jpg	1	0.75	686.29	690.022	687.7	1	686.29	690.022	687.7	1
690.296	4	Aircraft1_70%_23.jpg	0	0.75	690.296	694.031	692.258	0	690.296	694.031	692.258	0
694.325	4	Aircraft1_70%_21.jpg	0	0.75	694.325	698.061	697.63	0	694.325	698.061	697.63	0
698.335	4	Aircraft2_70%_36.jpg	1	0.75	698.335	702.067	701.121	1	698.335	702.067	701.121	1
702.337	4	rest.jpg	NaN	NaN	702.337	706.07	706.337	NaN	702.337	706.07	706.337	NaN
706.304	4	rest.jpg	NaN	NaN	706.304	710.035	710.304	NaN	706.304	710.035	710.304	NaN
710.267	4	rest.jpg	NaN	NaN	710.267	714.003	714.267	NaN	710.267	714.003	714.267	NaN
714.276	4	Aircraft2_10%_41.jpg	1	0.1	714.276	718.013	716.363	1	714.276	718.013	716.363	1
718.303	4	Aircraft1_10%_22.jpg	0	0.1	718.303	722.035	719.173	0	718.303	722.035	719.173	0
722.317	4	Aircraft1_10%_44.jpg	0	0.1	722.317	726.052	723.689	0	722.317	726.052	723.689	0
726.327	4	Aircraft1_10%_1.jpg	0	0.1	726.327	730.063	728.723	0	726.327	730.063	728.723	0
730.35	4	Aircraft2_10%_37.jpg	1	0.1	730.35	734.08	733.062	1	730.35	734.08	733.062	1
734.371	4	rest.jpg	NaN	NaN	734.371	738.101	738.371	NaN	734.371	738.101	738.371	NaN
738.335	4	rest.jpg	NaN	NaN	738.335	742.065	742.335	NaN	738.335	742.065	742.335	NaN
742.313	4	rest.jpg	NaN	NaN	742.313	746.047	746.313	NaN	742.313	746.047	746.313	NaN
746.329	4	Aircraft2_90%_31.jpg	1	0.9	746.329	750.063	750.329	1	746.329	750.063	750.329	1
750.348	4	Aircraft1_90%_4.jpg	0	0.9	750.348	754.084	752.46	0	750.348	754.084	752.46	0
754.373	4	Aircraft2_90%_20.jpg	1	0.9	754.373	758.109	756.494	1	754.373	758.109	756.494	1
758.395	4	Aircraft1_90%_7.jpg	0	0.9	758.395	762.128	760.653	0	758.395	762.128	760.653	0
762.395	4	Aircraft1_90%_8.jpg	0	0.9	762.395	766.131	766.395	0	762.395	766.131	766.395	0
766.417	4	rest.jpg	NaN	NaN	766.417	770.149	770.417	NaN	766.417	770.149	770.417	NaN
770.396	4	rest.jpg	NaN	NaN	770.396	774.128	774.396	NaN	770.396	774.128	774.396	NaN
774.379	4	rest.jpg	NaN	NaN	774.379	778.114	778.379	NaN	774.379	778.114	778.379	NaN
778.387	4	Aircraft2_70%_14.jpg	1	0.75	778.387	782.116	780	1	778.387	782.116	780	1
782.388	4	Aircraft2_70%_5.jpg	1	0.75	782.388	786.12	784.637	1	782.388	786.12	784.637	1
786.391	4	Aircraft2_70%_15.jpg	1	0.75	786.391	790.122	788.596	1	786.391	790.122	788.596	1
790.407	4	Aircraft2_70%_19.jpg	1	0.75	790.407	794.137	792.258	1	790.407	794.137	792.258	1
794.41	4	Aircraft1_70%_31.jpg	0	0.75	794.41	798.142	795.608	0	794.41	798.142	795.608	0
798.412	4	rest.jpg	NaN	NaN	798.412	802.148	802.412	NaN	798.412	802.148	802.412	NaN
802.399	4	rest.jpg	NaN	NaN	802.399	806.135	806.399	NaN	802.399	806.135	806.399	NaN
806.385	4	rest.jpg	NaN	NaN	806.385	810.115	810.385	NaN	806.385	810.115	810.385	NaN
810.39	4	Aircraft2_10%_9.jpg	1	0.1	810.39	814.124	811.871	1	810.39	814.124	811.871	1
814.398	4	Aircraft2_10%_6.jpg	1	0.1	814.398	818.129	815.306	1	814.398	818.129	815.306	1
818.419	4	Aircraft1_10%_23.jpg	0	0.1	818.419	822.149	820.344	0	818.419	822.149	820.344	0
822.424	4	Aircraft1_10%_21.jpg	0	0.1	822.424	826.154	824.698	0	822.424	826.154	824.698	0
826.439	4	Aircraft2_10%_36.jpg	1	0.1	826.439	830.169	828.481	1	826.439	830.169	828.481	1
830.459	4	rest.jpg	NaN	NaN	830.459	834.189	834.459	NaN	830.459	834.189	834.459	NaN
834.422	4	rest.jpg	NaN	NaN	834.422	838.158	838.422	NaN	834.422	838.158	838.422	NaN
838.405	4	rest.jpg	NaN	NaN	838.405	842.139	842.405	NaN	838.405	842.139	842.405	NaN
842.406	4	Aircraft2_90%_24.jpg	1	0.9	842.406	846.141	844.915	1	842.406	846.141	844.915	1
846.408	4	Aircraft2_90%_2.jpg	1	0.9	846.408	850.138	849.715	1	846.408	850.138	849.715	1
850.422	4	Aircraft2_90%_43.jpg	1	0.9	850.422	854.151	852.864	1	850.422	854.151	852.864	1
854.417	4	Aircraft2_90%_46.jpg	1	0.9	854.417	858.15	856.366	1	854.417	858.15	856.366	1
858.43	4	Aircraft1_90%_42.jpg	0	0.9	858.43	862.161	861.238	0	858.43	862.161	861.238	0
862.429	4	rest.jpg	NaN	NaN	862.429	866.165	866.429	NaN	862.429	866.165	866.429	NaN
866.414	4	rest.jpg	NaN	NaN	866.414	870.144	870.414	NaN	866.414	870.144	870.414	NaN
870.393	4	rest.jpg	NaN	NaN	870.393	874.129	874.393	NaN	870.393	874.129	874.393	NaN
874.403	4	Aircraft1_70%_3.jpg	0	0.75	874.403	878.135	877.476	0	874.403	878.135	877.476	0
878.409	4	Aircraft2_70%_28.jpg	1	0.75	878.409	882.139	879.656	1	878.409	882.139	879.656	1
882.424	4	Aircraft1_70%_24.jpg	0	0.75	882.424	886.156	883.62	0	882.424	886.156	883.62	0
886.443	4	Aircraft2_70%_39.jpg	1	0.75	886.443	890.178	888.045	1	886.443	890.178	888.045	1
890.465	4	Aircraft2_70%_8.jpg	1	0.75	890.465	894.203	893.371	1	890.465	894.203	893.371	1
894.484	4	rest.jpg	NaN	NaN	894.484	898.214	898.484	NaN	894.484	898.214	898.484	NaN
898.448	4	rest.jpg	NaN	NaN	898.448	902.178	902.448	NaN	898.448	902.178	902.448	NaN
902.412	4	rest.jpg	NaN	NaN	902.412	906.148	906.412	NaN	902.412	906.148	906.412	NaN
906.419	4	Aircraft1_10%_12.jpg	0	0.1	906.419	910.156	907.408	0	906.419	910.156	907.408	0
910.431	4	Aircraft2_10%_32.jpg	1	0.1	910.431	914.161	911.432	1	910.431	914.161	911.432	1
914.452	4	Aircraft2_10%_48.jpg	1	0.1	914.452	918.186	915.353	1	914.452	918.186	915.353	1
918.475	4	Aircraft1_10%_19.jpg	0	0.1	918.475	922.207	919.443	0	918.475	922.207	919.443	0
922.496	4	Aircraft1_10%_33.jpg	0	0.1	922.496	926.225	923.337	0	922.496	926.225	923.337	0
926.512	4	rest.jpg	NaN	NaN	926.512	930.248	930.512	NaN	926.512	930.248	930.512	NaN
930.48	4	rest.jpg	NaN	NaN	930.48	934.213	934.48	NaN	930.48	934.213	934.48	NaN
934.462	4	rest.jpg	NaN	NaN	934.462	938.192	938.462	NaN	934.462	938.192	938.462	NaN
938.476	4	Aircraft1_90%_17.jpg	0	0.9	938.476	942.213	940.023	0	938.476	942.213	940.023	0
942.501	4	Aircraft2_90%_42.jpg	1	0.9	942.501	946.231	945.142	1	942.501	946.231	945.142	1
946.517	4	Aircraft2_90%_44.jpg	1	0.9	946.517	950.249	949.774	1	946.517	950.249	949.774	1
950.517	4	Aircraft1_90%_10.jpg	0	0.9	950.517	954.249	954.517	0	950.517	954.249	954.517	0
954.535	4	Aircraft2_90%_25.jpg	1	0.9	954.535	958.27	957.332	1	954.535	958.27	957.332	1
958.558	4	rest.jpg	NaN	NaN	958.558	962.289	962.558	NaN	958.558	962.289	962.558	NaN
962.521	4	rest.jpg	NaN	NaN	962.521	966.258	966.521	NaN	962.521	966.258	966.521	NaN
966.504	4	rest.jpg	NaN	NaN	966.504	970.236	970.504	NaN	966.504	970.236	970.504	NaN
970.505	4	Aircraft1_70%_25.jpg	0	0.75	970.505	974.237	971.691	0	970.505	974.237	971.691	0
974.52	4	Aircraft2_70%_49.jpg	1	0.75	974.52	978.25	976.106	1	974.52	978.25	976.106	1
978.519	4	Aircraft2_70%_10.jpg	1	0.75	978.519	982.249	979.639	1	978.519	982.249	979.639	1
982.537	4	Aircraft2_70%_12.jpg	1	0.75	982.537	986.267	984.083	1	982.537	986.267	984.083	1
986.552	4	Aircraft2_70%_7.jpg	1	0.75	986.552	990.282	988.178	1	986.552	990.282	988.178	1
990.553	4	rest.jpg	NaN	NaN	990.553	994.29	994.553	NaN	990.553	994.29	994.553	NaN
994.526	4	rest.jpg	NaN	NaN	994.526	998.257	998.526	NaN	994.526	998.257	998.526	NaN
998.489	4	rest.jpg	NaN	NaN	998.489	1002.219	1002.489	NaN	998.489	1002.219	1002.489	NaN
