onset	duration	stim_file	stim_lable	levelOfOcclusion	stim_started	stim_stopped	key_time	key_fix	stim_started_1	stim_stopped_1	key_time_1	key_fix_1
40.196	4	Aircraft1_10%_2.jpg	0	0.1	40.196	43.948	40.859	0	40.196	43.948	40.859	0
44.2	4	Aircraft1_10%_39.jpg	0	0.1	44.2	47.954	44.721	0	44.2	47.954	44.721	0
48.207	4	Aircraft2_10%_26.jpg	1	0.1	48.207	51.962	48.696	1	48.207	51.962	48.696	1
52.222	4	Aircraft1_10%_15.jpg	0	0.1	52.222	55.973	52.79	0	52.222	55.973	52.79	0
56.238	4	Aircraft2_10%_16.jpg	1	0.1	56.238	59.985	56.934	1	56.238	59.985	56.934	1
60.241	4	rest.jpg	NaN	NaN	60.241	63.99	64.241	NaN	60.241	63.99	64.241	NaN
64.23	4	rest.jpg	NaN	NaN	64.23	67.978	68.23	NaN	64.23	67.978	68.23	NaN
68.211	4	rest.jpg	NaN	NaN	68.211	71.964	72.211	NaN	68.211	71.964	72.211	NaN
72.225	4	Aircraft2_90%_14.jpg	1	0.9	72.225	75.979	72.863	1	72.225	75.979	72.863	1
76.241	4	Aircraft2_90%_5.jpg	1	0.9	76.241	79.99	76.771	1	76.241	79.99	76.771	1
80.258	4	Aircraft2_90%_15.jpg	1	0.9	80.258	84.005	80.817	1	80.258	84.005	80.817	1
84.269	4	Aircraft2_90%_19.jpg	1	0.9	84.269	88.022	85.012	1	84.269	88.022	85.012	1
88.27	4	Aircraft1_90%_31.jpg	0	0.9	88.27	92.019	88.99	0	88.27	92.019	88.99	0
92.27	4	rest.jpg	NaN	NaN	92.27	96.019	96.27	NaN	92.27	96.019	96.27	NaN
96.253	4	rest.jpg	NaN	NaN	96.253	100.005	100.253	NaN	96.253	100.005	100.253	NaN
100.243	4	rest.jpg	NaN	NaN	100.243	103.992	104.243	NaN	100.243	103.992	104.243	NaN
104.241	4	Aircraft2_70%_4.jpg	1	0.75	104.241	107.991	105.082	1	104.241	107.991	105.082	1
108.255	4	Aircraft1_70%_43.jpg	0	0.75	108.255	112.002	109.003	0	108.255	112.002	109.003	0
112.252	4	Aircraft1_70%_9.jpg	0	0.75	112.252	116.006	113.076	0	112.252	116.006	113.076	0
116.256	4	Aircraft1_70%_11.jpg	0	0.75	116.256	120.008	116.987	0	116.256	120.008	116.987	0
120.259	4	Aircraft1_70%_50.jpg	0	0.75	120.259	124.008	121.01	0	120.259	124.008	121.01	0
124.258	4	rest.jpg	NaN	NaN	124.258	128.01	128.258	NaN	124.258	128.01	128.258	NaN
128.251	4	rest.jpg	NaN	NaN	128.251	132.005	132.251	NaN	128.251	132.005	132.251	NaN
132.243	4	rest.jpg	NaN	NaN	132.243	135.99	136.243	NaN	132.243	135.99	136.243	NaN
136.249	4	Aircraft1_10%_36.jpg	0	0.1	136.249	139.995	136.955	0	136.249	139.995	136.955	0
140.248	4	Aircraft1_10%_35.jpg	0	0.1	140.248	143.996	140.941	0	140.248	143.996	140.941	0
144.248	4	Aircraft2_10%_3.jpg	1	0.1	144.248	147.997	145.329	1	144.248	147.997	145.329	1
148.252	4	Aircraft1_10%_5.jpg	0	0.1	148.252	152.001	149.004	0	148.252	152.001	149.004	0
152.265	4	Aircraft1_10%_48.jpg	0	0.1	152.265	156.02	152.824	0	152.265	156.02	152.824	0
156.271	4	rest.jpg	NaN	NaN	156.271	160.02	160.271	NaN	156.271	160.02	160.271	NaN
160.259	4	rest.jpg	NaN	NaN	160.259	164.009	164.259	NaN	160.259	164.009	164.259	NaN
164.261	4	rest.jpg	NaN	NaN	164.261	168.015	168.261	NaN	164.261	168.015	168.261	NaN
168.279	4	Aircraft1_90%_3.jpg	0	0.9	168.279	172.026	168.845	0	168.279	172.026	168.845	0
172.275	4	Aircraft2_90%_28.jpg	1	0.9	172.275	176.028	172.952	1	172.275	176.028	172.952	1
176.277	4	Aircraft1_90%_24.jpg	0	0.9	176.277	180.027	177.119	0	176.277	180.027	177.119	0
180.274	4	Aircraft2_90%_39.jpg	1	0.9	180.274	184.027	180.789	1	180.274	184.027	180.789	1
184.294	4	Aircraft2_90%_8.jpg	1	0.9	184.294	188.043	185.229	1	184.294	188.043	185.229	1
188.298	4	rest.jpg	NaN	NaN	188.298	192.051	192.298	NaN	188.298	192.051	192.298	NaN
192.295	4	rest.jpg	NaN	NaN	192.295	196.047	196.295	NaN	192.295	196.047	196.295	NaN
196.281	4	rest.jpg	NaN	NaN	196.281	200.031	200.281	NaN	196.281	200.031	200.281	NaN
200.281	4	Aircraft2_70%_18.jpg	1	0.75	200.281	204.028	200.722	1	200.281	204.028	200.722	1
204.285	4	Aircraft1_70%_29.jpg	0	0.75	204.285	208.032	204.955	0	204.285	208.032	204.955	0
208.282	4	Aircraft2_70%_1.jpg	1	0.75	208.282	212.029	209.163	1	208.282	212.029	209.163	1
212.277	4	Aircraft1_70%_26.jpg	0	0.75	212.277	216.031	213.503	0	212.277	216.031	213.503	0
216.287	4	Aircraft2_70%_34.jpg	1	0.75	216.287	220.034	217.382	1	216.287	220.034	217.382	1
220.286	4	rest.jpg	NaN	NaN	220.286	224.035	224.286	NaN	220.286	224.035	224.286	NaN
224.269	4	rest.jpg	NaN	NaN	224.269	228.023	228.269	NaN	224.269	228.023	228.269	NaN
228.258	4	rest.jpg	NaN	NaN	228.258	232.011	232.258	NaN	228.258	232.011	232.258	NaN
232.274	4	Aircraft2_10%_17.jpg	1	0.1	232.274	236.022	232.845	1	232.274	236.022	232.845	1
236.288	4	Aircraft2_10%_11.jpg	1	0.1	236.288	240.041	237.099	1	236.288	240.041	237.099	1
240.31	4	Aircraft1_10%_20.jpg	0	0.1	240.31	244.06	241.032	0	240.31	244.06	241.032	0
244.31	4	Aircraft2_10%_47.jpg	1	0.1	244.31	248.064	245.271	1	244.31	248.064	245.271	1
248.324	4	Aircraft2_10%_45.jpg	1	0.1	248.324	252.073	248.974	1	248.324	252.073	248.974	1
252.321	4	rest.jpg	NaN	NaN	252.321	256.073	256.321	NaN	252.321	256.073	256.321	NaN
256.307	4	rest.jpg	NaN	NaN	256.307	260.056	260.307	NaN	256.307	260.056	260.307	NaN
260.29	4	rest.jpg	NaN	NaN	260.29	264.037	264.29	NaN	260.29	264.037	264.29	NaN
264.302	4	Aircraft1_90%_25.jpg	0	0.9	264.302	268.049	265.347	0	264.302	268.049	265.347	0
268.305	4	Aircraft2_90%_49.jpg	1	0.9	268.305	272.057	269.214	1	268.305	272.057	269.214	1
272.307	4	Aircraft2_90%_10.jpg	1	0.9	272.307	276.054	273.073	1	272.307	276.054	273.073	1
276.304	4	Aircraft2_90%_12.jpg	1	0.9	276.304	280.052	277.229	1	276.304	280.052	277.229	1
280.304	4	Aircraft2_90%_7.jpg	1	0.9	280.304	284.05	281.238	1	280.304	284.05	281.238	1
284.315	4	rest.jpg	NaN	NaN	284.315	288.067	288.315	NaN	284.315	288.067	288.315	NaN
288.299	4	rest.jpg	NaN	NaN	288.299	292.048	292.299	NaN	288.299	292.048	292.299	NaN
292.282	4	rest.jpg	NaN	NaN	292.282	296.036	296.282	NaN	292.282	296.036	296.282	NaN
296.292	4	Aircraft1_70%_32.jpg	0	0.75	296.292	300.041	297.11	0	296.292	300.041	297.11	0
300.307	4	Aircraft1_70%_49.jpg	0	0.75	300.307	304.059	300.99	0	300.307	304.059	300.99	0
304.31	4	Aircraft2_70%_22.jpg	1	0.75	304.31	308.059	305.158	1	304.31	308.059	305.158	1
308.319	4	Aircraft1_70%_34.jpg	0	0.75	308.319	312.066	309.056	0	308.319	312.066	309.056	0
312.335	4	Aircraft1_70%_14.jpg	0	0.75	312.335	316.085	313.058	0	312.335	316.085	313.058	0
316.335	4	rest.jpg	NaN	NaN	316.335	320.089	320.335	NaN	316.335	320.089	320.335	NaN
320.321	4	rest.jpg	NaN	NaN	320.321	324.073	324.321	NaN	320.321	324.073	324.321	NaN
324.319	4	rest.jpg	NaN	NaN	324.319	328.066	328.319	NaN	324.319	328.066	328.319	NaN
328.317	4	Aircraft1_10%_1.jpg	0	0.1	328.317	332.065	329.129	0	328.317	332.065	329.129	0
332.316	4	Aircraft1_10%_47.jpg	0	0.1	332.316	336.065	333.058	0	332.316	336.065	333.058	0
336.316	4	Aircraft1_10%_40.jpg	0	0.1	336.316	340.066	336.824	0	336.316	340.066	336.824	0
340.321	4	Aircraft1_10%_27.jpg	0	0.1	340.321	344.071	340.841	0	340.321	344.071	340.841	0
344.322	4	Aircraft2_10%_35.jpg	1	0.1	344.322	348.076	345.174	1	344.322	348.076	345.174	1
348.337	4	rest.jpg	NaN	NaN	348.337	352.086	352.337	NaN	348.337	352.086	352.337	NaN
352.337	4	rest.jpg	NaN	NaN	352.337	356.085	356.337	NaN	352.337	356.085	356.337	NaN
356.329	4	rest.jpg	NaN	NaN	356.329	360.082	360.329	NaN	356.329	360.082	360.329	NaN
360.329	4	Aircraft1_90%_32.jpg	0	0.9	360.329	364.082	361.02	0	360.329	364.082	361.02	0
364.349	4	Aircraft1_90%_49.jpg	0	0.9	364.349	368.096	365.113	0	364.349	368.096	365.113	0
368.351	4	Aircraft2_90%_22.jpg	1	0.9	368.351	372.098	369.332	1	368.351	372.098	369.332	1
372.347	4	Aircraft1_90%_34.jpg	0	0.9	372.347	376.097	373.082	0	372.347	376.097	373.082	0
376.356	4	Aircraft1_90%_14.jpg	0	0.9	376.356	380.108	377.248	0	376.356	380.108	377.248	0
380.358	4	rest.jpg	NaN	NaN	380.358	384.11	384.358	NaN	380.358	384.11	384.358	NaN
384.344	4	rest.jpg	NaN	NaN	384.344	388.097	388.344	NaN	384.344	388.097	388.344	NaN
388.331	4	rest.jpg	NaN	NaN	388.331	392.079	392.331	NaN	388.331	392.079	392.331	NaN
392.328	4	Aircraft2_70%_24.jpg	1	0.75	392.328	396.082	393.506	1	392.328	396.082	393.506	1
396.339	4	Aircraft2_70%_2.jpg	1	0.75	396.339	400.093	397.087	1	396.339	400.093	397.087	1
400.345	4	Aircraft2_70%_43.jpg	1	0.75	400.345	404.098	401.126	1	400.345	404.098	401.126	1
404.351	4	Aircraft2_70%_46.jpg	1	0.75	404.351	408.099	405.124	1	404.351	408.099	405.124	1
408.349	4	Aircraft1_70%_42.jpg	0	0.75	408.349	412.104	409.095	0	408.349	412.104	409.095	0
412.354	4	rest.jpg	NaN	NaN	412.354	416.106	416.354	NaN	412.354	416.106	416.354	NaN
416.339	4	rest.jpg	NaN	NaN	416.339	420.091	420.339	NaN	416.339	420.091	420.339	NaN
420.341	4	rest.jpg	NaN	NaN	420.341	424.088	424.341	NaN	420.341	424.088	424.341	NaN
424.339	4	Aircraft2_10%_30.jpg	1	0.1	424.339	428.086	424.996	1	424.339	428.086	424.996	1
428.336	4	Aircraft2_10%_27.jpg	1	0.1	428.336	432.086	429.091	1	428.336	432.086	429.091	1
432.342	4	Aircraft2_10%_50.jpg	1	0.1	432.342	436.089	433.006	1	432.342	436.089	433.006	1
436.354	4	Aircraft2_10%_29.jpg	1	0.1	436.354	440.103	436.924	1	436.354	440.103	436.924	1
440.354	4	Aircraft1_10%_6.jpg	0	0.1	440.354	444.106	441.084	0	440.354	444.106	441.084	0
444.368	4	rest.jpg	NaN	NaN	444.368	448.115	448.368	NaN	444.368	448.115	448.368	NaN
448.363	4	rest.jpg	NaN	NaN	448.363	452.116	452.363	NaN	448.363	452.116	452.363	NaN
452.35	4	rest.jpg	NaN	NaN	452.35	456.102	456.35	NaN	452.35	456.102	456.35	NaN
456.363	4	Aircraft2_90%_18.jpg	1	0.9	456.363	460.113	457.639	1	456.363	460.113	457.639	1
460.38	4	Aircraft1_90%_29.jpg	0	0.9	460.38	464.129	461.173	0	460.38	464.129	461.173	0
464.379	4	Aircraft2_90%_1.jpg	1	0.9	464.379	468.126	465.698	1	464.379	468.126	465.698	1
468.373	4	Aircraft1_90%_26.jpg	0	0.9	468.373	472.123	469.105	0	468.373	472.123	469.105	0
472.384	4	Aircraft2_90%_34.jpg	1	0.9	472.384	476.137	474.219	1	472.384	476.137	474.219	1
476.387	4	rest.jpg	NaN	NaN	476.387	480.134	480.387	NaN	476.387	480.134	480.387	NaN
480.368	4	rest.jpg	NaN	NaN	480.368	484.117	484.368	NaN	480.368	484.117	484.368	NaN
484.351	4	rest.jpg	NaN	NaN	484.351	488.1	488.351	NaN	484.351	488.1	488.351	NaN
488.35	4	Aircraft1_70%_17.jpg	0	0.75	488.35	492.097	489.549	0	488.35	492.097	489.549	0
492.346	4	Aircraft2_70%_42.jpg	1	0.75	492.346	496.1	493.802	1	492.346	496.1	493.802	1
496.358	4	Aircraft2_70%_44.jpg	1	0.75	496.358	500.108	497.122	1	496.358	500.108	497.122	1
500.358	4	Aircraft1_70%_10.jpg	0	0.75	500.358	504.104	501.292	0	500.358	504.104	501.292	0
504.353	4	Aircraft2_70%_25.jpg	1	0.75	504.353	508.1	505.448	1	504.353	508.1	505.448	1
508.348	4	rest.jpg	NaN	NaN	508.348	512.097	512.348	NaN	508.348	512.097	512.348	NaN
512.329	4	rest.jpg	NaN	NaN	512.329	516.082	516.329	NaN	512.329	516.082	516.329	NaN
516.315	4	rest.jpg	NaN	NaN	516.315	520.065	520.315	NaN	516.315	520.065	520.315	NaN
520.333	4	Aircraft1_10%_38.jpg	0	0.1	520.333	524.083	521.786	0	520.333	524.083	521.786	0
524.337	4	Aircraft2_10%_21.jpg	1	0.1	524.337	528.089	525.188	1	524.337	528.089	525.188	1
528.359	4	Aircraft1_10%_16.jpg	0	0.1	528.359	532.106	529.181	0	528.359	532.106	529.181	0
532.357	4	Aircraft1_10%_46.jpg	0	0.1	532.357	536.106	533.245	0	532.357	536.106	533.245	0
536.371	4	Aircraft2_10%_40.jpg	1	0.1	536.371	540.117	537.232	1	536.371	540.117	537.232	1
540.381	4	rest.jpg	NaN	NaN	540.381	544.128	544.381	NaN	540.381	544.128	544.381	NaN
544.36	4	rest.jpg	NaN	NaN	544.36	548.114	548.36	NaN	544.36	548.114	548.36	NaN
548.349	4	rest.jpg	NaN	NaN	548.349	552.097	552.349	NaN	548.349	552.097	552.349	NaN
552.36	4	Aircraft2_90%_4.jpg	1	0.9	552.36	556.113	553.382	1	552.36	556.113	553.382	1
556.378	4	Aircraft1_90%_43.jpg	0	0.9	556.378	560.133	557.377	0	556.378	560.133	557.377	0
560.382	4	Aircraft1_90%_9.jpg	0	0.9	560.382	564.134	561.176	0	560.382	564.134	561.176	0
564.393	4	Aircraft1_90%_11.jpg	0	0.9	564.393	568.147	565.548	0	564.393	568.147	565.548	0
568.409	4	Aircraft1_90%_50.jpg	0	0.9	568.409	572.161	569.392	0	568.409	572.161	569.392	0
572.411	4	rest.jpg	NaN	NaN	572.411	576.163	576.411	NaN	572.411	576.163	576.411	NaN
576.403	4	rest.jpg	NaN	NaN	576.403	580.15	580.403	NaN	576.403	580.15	580.403	NaN
580.382	4	rest.jpg	NaN	NaN	580.382	584.129	584.382	NaN	580.382	584.129	584.382	NaN
584.382	4	Aircraft1_70%_12.jpg	0	0.75	584.382	588.131	585.415	0	584.382	588.131	585.415	0
588.393	4	Aircraft2_70%_32.jpg	1	0.75	588.393	592.143	589.073	1	588.393	592.143	589.073	1
592.406	4	Aircraft2_70%_48.jpg	1	0.75	592.406	596.158	593.495	1	592.406	596.158	593.495	1
596.408	4	Aircraft1_70%_19.jpg	0	0.75	596.408	600.158	597.282	0	596.408	600.158	597.282	0
600.408	4	Aircraft1_70%_33.jpg	0	0.75	600.408	604.158	601.106	0	600.408	604.158	601.106	0
604.414	4	rest.jpg	NaN	NaN	604.414	608.161	608.414	NaN	604.414	608.161	608.414	NaN
608.395	4	rest.jpg	NaN	NaN	608.395	612.147	612.395	NaN	608.395	612.147	612.395	NaN
612.39	4	rest.jpg	NaN	NaN	612.39	616.14	616.39	NaN	612.39	616.14	616.39	NaN
616.407	4	Aircraft2_10%_23.jpg	1	0.1	616.407	620.161	617.239	1	616.407	620.161	617.239	1
620.412	4	Aircraft1_10%_28.jpg	0	0.1	620.412	624.16	621.278	0	620.412	624.16	621.278	0
624.411	4	Aircraft2_10%_13.jpg	1	0.1	624.411	628.163	625.38	1	624.411	628.163	625.38	1
628.418	4	Aircraft1_10%_45.jpg	0	0.1	628.418	632.165	629.242	0	628.418	632.165	629.242	0
632.416	4	Aircraft1_10%_37.jpg	0	0.1	632.416	636.166	633.555	0	632.416	636.166	633.555	0
636.416	4	rest.jpg	NaN	NaN	636.416	640.168	640.416	NaN	636.416	640.168	640.416	NaN
640.417	4	rest.jpg	NaN	NaN	640.417	644.17	644.417	NaN	640.417	644.17	644.417	NaN
644.408	4	rest.jpg	NaN	NaN	644.408	648.154	648.408	NaN	644.408	648.154	648.408	NaN
648.401	4	Aircraft2_90%_33.jpg	1	0.9	648.401	652.15	649.691	1	648.401	652.15	649.691	1
652.397	4	Aircraft2_90%_38.jpg	1	0.9	652.397	656.146	653.005	1	652.397	656.146	653.005	1
656.403	4	Aircraft1_90%_30.jpg	0	0.9	656.403	660.15	657.057	0	656.403	660.15	657.057	0
660.398	4	Aircraft1_90%_41.jpg	0	0.9	660.398	664.152	661.264	0	660.398	664.152	661.264	0
664.401	4	Aircraft1_90%_18.jpg	0	0.9	664.401	668.15	665.493	0	664.401	668.15	665.493	0
668.404	4	rest.jpg	NaN	NaN	668.404	672.151	672.404	NaN	668.404	672.151	672.404	NaN
672.398	4	rest.jpg	NaN	NaN	672.398	676.146	676.398	NaN	672.398	676.146	676.398	NaN
676.381	4	rest.jpg	NaN	NaN	676.381	680.135	680.381	NaN	676.381	680.135	680.381	NaN
680.385	4	Aircraft2_70%_9.jpg	1	0.75	680.385	684.136	681.451	1	680.385	684.136	681.451	1
684.392	4	Aircraft2_70%_6.jpg	1	0.75	684.392	688.145	685.084	1	684.392	688.145	685.084	1
688.407	4	Aircraft1_70%_23.jpg	0	0.75	688.407	692.161	689.124	0	688.407	692.161	689.124	0
692.424	4	Aircraft1_70%_21.jpg	0	0.75	692.424	696.172	693.597	0	692.424	696.172	693.597	0
696.426	4	Aircraft2_70%_36.jpg	1	0.75	696.426	700.178	697.26	1	696.426	700.178	697.26	1
700.439	4	rest.jpg	NaN	NaN	700.439	704.193	704.439	NaN	700.439	704.193	704.439	NaN
704.431	4	rest.jpg	NaN	NaN	704.431	708.184	708.431	NaN	704.431	708.184	708.431	NaN
708.418	4	rest.jpg	NaN	NaN	708.418	712.171	712.418	NaN	708.418	712.171	712.418	NaN
712.422	4	Aircraft2_10%_41.jpg	1	0.1	712.422	716.174	713.152	1	712.422	716.174	713.152	1
716.426	4	Aircraft1_10%_22.jpg	0	0.1	716.426	720.175	717.182	0	716.426	720.175	717.182	0
720.424	4	Aircraft1_10%_44.jpg	0	0.1	720.424	724.173	721.149	0	720.424	724.173	721.149	0
724.424	4	Aircraft1_10%_1.jpg	0	0.1	724.424	728.178	725.279	0	724.424	728.178	725.279	0
728.428	4	Aircraft2_10%_37.jpg	1	0.1	728.428	732.175	729.348	1	728.428	732.175	729.348	1
732.445	4	rest.jpg	NaN	NaN	732.445	736.193	736.445	NaN	732.445	736.193	736.445	NaN
736.426	4	rest.jpg	NaN	NaN	736.426	740.175	740.426	NaN	736.426	740.175	740.426	NaN
740.414	4	rest.jpg	NaN	NaN	740.414	744.168	744.414	NaN	740.414	744.168	744.414	NaN
744.422	4	Aircraft2_90%_31.jpg	1	0.9	744.422	748.172	745.439	1	744.422	748.172	745.439	1
748.421	4	Aircraft1_90%_4.jpg	0	0.9	748.421	752.175	749.242	0	748.421	752.175	749.242	0
752.424	4	Aircraft2_90%_20.jpg	1	0.9	752.424	756.177	753.253	1	752.424	756.177	753.253	1
756.424	4	Aircraft1_90%_7.jpg	0	0.9	756.424	760.177	757.123	0	756.424	760.177	757.123	0
760.435	4	Aircraft1_90%_8.jpg	0	0.9	760.435	764.182	761.189	0	760.435	764.182	761.189	0
764.452	4	rest.jpg	NaN	NaN	764.452	768.199	768.452	NaN	764.452	768.199	768.452	NaN
768.433	4	rest.jpg	NaN	NaN	768.433	772.187	772.433	NaN	768.433	772.187	772.433	NaN
772.424	4	rest.jpg	NaN	NaN	772.424	776.173	776.424	NaN	772.424	776.173	776.424	NaN
776.432	4	Aircraft2_70%_14.jpg	1	0.75	776.432	780.186	777.13	1	776.432	780.186	777.13	1
780.445	4	Aircraft2_70%_5.jpg	1	0.75	780.445	784.194	781.197	1	780.445	784.194	781.197	1
784.444	4	Aircraft2_70%_15.jpg	1	0.75	784.444	788.193	785.137	1	784.444	788.193	785.137	1
788.442	4	Aircraft2_70%_19.jpg	1	0.75	788.442	792.188	789.13	1	788.442	792.188	789.13	1
792.445	4	Aircraft1_70%_31.jpg	0	0.75	792.445	796.192	793.182	0	792.445	796.192	793.182	0
796.44	4	rest.jpg	NaN	NaN	796.44	800.187	800.44	NaN	796.44	800.187	800.44	NaN
800.419	4	rest.jpg	NaN	NaN	800.419	804.168	804.419	NaN	800.419	804.168	804.419	NaN
804.402	4	rest.jpg	NaN	NaN	804.402	808.151	808.402	NaN	804.402	808.151	808.402	NaN
808.401	4	Aircraft2_10%_9.jpg	1	0.1	808.401	812.153	809.189	1	808.401	812.153	809.189	1
812.404	4	Aircraft2_10%_6.jpg	1	0.1	812.404	816.151	813.841	1	812.404	816.151	813.841	1
816.414	4	Aircraft1_10%_23.jpg	0	0.1	816.414	820.166	817.072	0	816.414	820.166	817.072	0
820.417	4	Aircraft1_10%_21.jpg	0	0.1	820.417	824.173	821.296	0	820.417	824.173	821.296	0
824.432	4	Aircraft2_10%_36.jpg	1	0.1	824.432	828.186	825.44	1	824.432	828.186	825.44	1
828.438	4	rest.jpg	NaN	NaN	828.438	832.188	832.438	NaN	828.438	832.188	832.438	NaN
832.421	4	rest.jpg	NaN	NaN	832.421	836.174	836.421	NaN	832.421	836.174	836.421	NaN
836.413	4	rest.jpg	NaN	NaN	836.413	840.163	840.413	NaN	836.413	840.163	840.413	NaN
840.41	4	Aircraft2_90%_24.jpg	1	0.9	840.41	844.157	841.429	1	840.41	844.157	841.429	1
844.426	4	Aircraft2_90%_2.jpg	1	0.9	844.426	848.179	845.998	1	844.426	848.179	845.998	1
848.428	4	Aircraft2_90%_43.jpg	1	0.9	848.428	852.182	849.457	1	848.428	852.182	849.457	1
852.441	4	Aircraft2_90%_46.jpg	1	0.9	852.441	856.19	853.261	1	852.441	856.19	853.261	1
856.458	4	Aircraft1_90%_42.jpg	0	0.9	856.458	860.207	858.397	0	856.458	860.207	858.397	0
860.474	4	rest.jpg	NaN	NaN	860.474	864.226	864.474	NaN	860.474	864.226	864.474	NaN
864.459	4	rest.jpg	NaN	NaN	864.459	868.211	868.459	NaN	864.459	868.211	868.459	NaN
868.45	4	rest.jpg	NaN	NaN	868.45	872.199	872.45	NaN	868.45	872.199	872.45	NaN
872.447	4	Aircraft1_70%_3.jpg	0	0.75	872.447	876.194	873.427	0	872.447	876.194	873.427	0
876.461	4	Aircraft2_70%_28.jpg	1	0.75	876.461	880.214	877.864	1	876.461	880.214	877.864	1
880.464	4	Aircraft1_70%_24.jpg	0	0.75	880.464	884.213	881.768	0	880.464	884.213	881.768	0
884.462	4	Aircraft2_70%_39.jpg	1	0.75	884.462	888.214	886.428	1	884.462	888.214	886.428	1
888.467	4	Aircraft2_70%_8.jpg	1	0.75	888.467	892.216	890.512	1	888.467	892.216	890.512	1
892.481	4	rest.jpg	NaN	NaN	892.481	896.23	896.481	NaN	892.481	896.23	896.481	NaN
896.464	4	rest.jpg	NaN	NaN	896.464	900.218	900.464	NaN	896.464	900.218	900.464	NaN
900.46	4	rest.jpg	NaN	NaN	900.46	904.206	904.46	NaN	900.46	904.206	904.46	NaN
904.454	4	Aircraft1_10%_12.jpg	0	0.1	904.454	908.206	905.415	0	904.454	908.206	905.415	0
908.454	4	Aircraft2_10%_32.jpg	1	0.1	908.454	912.202	909.312	1	908.454	912.202	909.312	1
912.451	4	Aircraft2_10%_48.jpg	1	0.1	912.451	916.198	913.476	1	912.451	916.198	913.476	1
916.459	4	Aircraft1_10%_19.jpg	0	0.1	916.459	920.206	917.018	0	916.459	920.206	917.018	0
920.456	4	Aircraft1_10%_33.jpg	0	0.1	920.456	924.208	921.951	0	920.456	924.208	921.951	0
924.47	4	rest.jpg	NaN	NaN	924.47	928.223	928.47	NaN	924.47	928.223	928.47	NaN
928.457	4	rest.jpg	NaN	NaN	928.457	932.206	932.457	NaN	928.457	932.206	932.457	NaN
932.44	4	rest.jpg	NaN	NaN	932.44	936.193	936.44	NaN	932.44	936.193	936.44	NaN
936.442	4	Aircraft1_90%_17.jpg	0	0.9	936.442	940.189	937.697	0	936.442	940.189	937.697	0
940.437	4	Aircraft2_90%_42.jpg	1	0.9	940.437	944.186	941.276	1	940.437	944.186	941.276	1
944.445	4	Aircraft2_90%_44.jpg	1	0.9	944.445	948.197	945.173	1	944.445	948.197	945.173	1
948.463	4	Aircraft1_90%_10.jpg	0	0.9	948.463	952.21	949.2	0	948.463	952.21	949.2	0
952.463	4	Aircraft2_90%_25.jpg	1	0.9	952.463	956.218	953.424	1	952.463	956.218	953.424	1
956.468	4	rest.jpg	NaN	NaN	956.468	960.215	960.468	NaN	956.468	960.215	960.468	NaN
960.448	4	rest.jpg	NaN	NaN	960.448	964.197	964.448	NaN	960.448	964.197	964.448	NaN
964.43	4	rest.jpg	NaN	NaN	964.43	968.182	968.43	NaN	964.43	968.182	968.43	NaN
968.432	4	Aircraft1_70%_25.jpg	0	0.75	968.432	972.179	969.421	0	968.432	972.179	969.421	0
972.44	4	Aircraft2_70%_49.jpg	1	0.75	972.44	976.186	973.246	1	972.44	976.186	973.246	1
976.435	4	Aircraft2_70%_10.jpg	1	0.75	976.435	980.188	977.784	1	976.435	980.188	977.784	1
980.438	4	Aircraft2_70%_12.jpg	1	0.75	980.438	984.188	981.46	1	980.438	984.188	981.46	1
984.443	4	Aircraft2_70%_7.jpg	1	0.75	984.443	988.197	985.353	1	984.443	988.197	985.353	1
988.447	4	rest.jpg	NaN	NaN	988.447	992.199	992.447	NaN	988.447	992.199	992.447	NaN
992.433	4	rest.jpg	NaN	NaN	992.433	996.182	996.433	NaN	992.433	996.182	996.433	NaN
996.416	4	rest.jpg	NaN	NaN	996.416	1000.163	1000.416	NaN	996.416	1000.163	1000.416	NaN
