sub	run	block	trail	oneset	duration	stim_file	stim_lable	level of occlusion	stim_started	stim_stopped	key_time	key_fix
28	1	1	1	40.002	4	Aircraft1_10%_2.jpg	0	0.1	40.002	43.734	41.122	0
28	1	1	2	44.041	4	Aircraft1_10%_39.jpg	0	0.1	44.041	47.772	46.074	0
28	1	1	3	48.068	4	Aircraft2_10%_26.jpg	1	0.1	48.068	51.806	49.014	1
28	1	1	4	52.117	4	Aircraft1_10%_15.jpg	0	0.1	52.117	55.853	53.255	0
28	1	1	5	56.132	4	Aircraft2_10%_16.jpg	1	0.1	56.132	59.868	58.135	1
28	1	1	6	60.16	4	rest.jpg	n/a	n/a	60.16	63.894	64.16	n/a
28	1	1	7	64.13	4	rest.jpg	n/a	n/a	64.13	67.869	68.13	n/a
28	1	1	8	68.123	4	rest.jpg	n/a	n/a	68.123	71.856	72.123	n/a
28	1	2	9	72.153	4	Aircraft2_90%_14.jpg	1	0.9	72.153	75.894	74.388	1
28	1	2	10	76.167	4	Aircraft2_90%_5.jpg	1	0.9	76.167	79.899	78.08	1
28	1	2	11	80.169	4	Aircraft2_90%_15.jpg	1	0.9	80.169	83.906	82.481	1
28	1	2	12	84.206	4	Aircraft2_90%_19.jpg	1	0.9	84.206	87.942	86.384	1
28	1	2	13	88.233	4	Aircraft1_90%_31.jpg	0	0.9	88.233	91.964	90.414	0
28	1	2	14	92.247	4	rest.jpg	n/a	n/a	92.247	95.983	96.247	n/a
28	1	2	15	96.232	4	rest.jpg	n/a	n/a	96.232	99.964	100.232	n/a
28	1	2	16	100.203	4	rest.jpg	n/a	n/a	100.203	103.941	104.203	n/a
28	1	3	17	104.219	4	Aircraft2_70%_4.jpg	1	0.75	104.219	107.95	105.865	1
28	1	3	18	108.25	4	Aircraft1_70%_43.jpg	0	0.75	108.25	111.987	109.525	0
28	1	3	19	112.291	4	Aircraft1_70%_9.jpg	0	0.75	112.291	116.021	115.656	0
28	1	3	20	116.317	4	Aircraft1_70%_11.jpg	0	0.75	116.317	120.049	118.253	0
28	1	3	21	120.322	4	Aircraft1_70%_50.jpg	0	0.75	120.322	124.057	121.324	0
28	1	3	22	124.339	4	rest.jpg	n/a	n/a	124.339	128.069	128.339	n/a
28	1	3	23	128.309	4	rest.jpg	n/a	n/a	128.309	132.038	132.309	n/a
28	1	3	24	132.287	4	rest.jpg	n/a	n/a	132.287	136.019	136.287	n/a
28	1	4	25	136.315	4	Aircraft1_10%_36.jpg	0	0.1	136.315	140.05	138.319	0
28	1	4	26	140.336	4	Aircraft1_10%_35.jpg	0	0.1	140.336	144.068	142.008	0
28	1	4	27	144.34	4	Aircraft2_10%_3.jpg	1	0.1	144.34	148.071	146.114	1
28	1	4	28	148.379	4	Aircraft1_10%_5.jpg	0	0.1	148.379	152.11	150.031	0
28	1	4	29	152.395	4	Aircraft1_10%_48.jpg	0	0.1	152.395	156.128	153.681	0
28	1	4	30	156.391	4	rest.jpg	n/a	n/a	156.391	160.121	160.391	n/a
28	1	4	31	160.356	4	rest.jpg	n/a	n/a	160.356	164.086	164.356	n/a
28	1	4	32	164.331	4	rest.jpg	n/a	n/a	164.331	168.068	168.331	n/a
28	1	5	33	168.339	4	Aircraft1_90%_3.jpg	0	0.9	168.339	172.075	170.293	0
28	1	5	34	172.357	4	Aircraft2_90%_28.jpg	1	0.9	172.357	176.093	173.34	1
28	1	5	35	176.374	4	Aircraft1_90%_24.jpg	0	0.9	176.374	180.106	177.787	0
28	1	5	36	180.377	4	Aircraft2_90%_39.jpg	1	0.9	180.377	184.109	181.483	1
28	1	5	37	184.379	4	Aircraft2_90%_8.jpg	1	0.9	184.379	188.11	186.79	1
28	1	5	38	188.372	4	rest.jpg	n/a	n/a	188.372	192.107	192.372	n/a
28	1	5	39	192.35	4	rest.jpg	n/a	n/a	192.35	196.085	196.35	n/a
28	1	5	40	196.336	4	rest.jpg	n/a	n/a	196.336	200.066	200.336	n/a
28	1	6	41	200.366	4	Aircraft2_70%_18.jpg	1	0.75	200.366	204.096	201.599	1
28	1	6	42	204.396	4	Aircraft1_70%_29.jpg	0	0.75	204.396	208.131	205.376	0
28	1	6	43	208.435	4	Aircraft2_70%_1.jpg	1	0.75	208.435	212.168	211.043	1
28	1	6	44	212.463	4	Aircraft1_70%_26.jpg	0	0.75	212.463	216.195	215.842	0
28	1	6	45	216.471	4	Aircraft2_70%_34.jpg	1	0.75	216.471	220.206	217.622	1
28	1	6	46	220.474	4	rest.jpg	n/a	n/a	220.474	224.203	224.474	n/a
28	1	6	47	224.447	4	rest.jpg	n/a	n/a	224.447	228.176	228.447	n/a
28	1	6	48	228.412	4	rest.jpg	n/a	n/a	228.412	232.142	232.412	n/a
28	1	7	49	232.416	4	Aircraft2_10%_17.jpg	1	0.1	232.416	236.148	234.577	1
28	1	7	50	236.426	4	Aircraft2_10%_11.jpg	1	0.1	236.426	240.158	238.184	1
28	1	7	51	240.435	4	Aircraft1_10%_20.jpg	0	0.1	240.435	244.17	241.46	0
28	1	7	52	244.468	4	Aircraft2_10%_47.jpg	1	0.1	244.468	248.204	245.929	1
28	1	7	53	248.48	4	Aircraft2_10%_45.jpg	1	0.1	248.48	252.212	249.773	1
28	1	7	54	252.5	4	rest.jpg	n/a	n/a	252.5	256.235	256.5	n/a
28	1	7	55	256.466	4	rest.jpg	n/a	n/a	256.466	260.203	260.466	n/a
28	1	7	56	260.433	4	rest.jpg	n/a	n/a	260.433	264.169	264.433	n/a
28	1	8	57	264.467	4	Aircraft1_90%_25.jpg	0	0.9	264.467	268.205	267.393	0
28	1	8	58	268.476	4	Aircraft2_90%_49.jpg	1	0.9	268.476	272.214	269.653	1
28	1	8	59	272.509	4	Aircraft2_90%_10.jpg	1	0.9	272.509	276.244	275.817	1
28	1	8	60	276.538	4	Aircraft2_90%_12.jpg	1	0.9	276.538	280.268	280.087	1
28	1	8	61	280.545	4	Aircraft2_90%_7.jpg	1	0.9	280.545	284.282	282.012	1
28	1	8	62	284.546	4	rest.jpg	n/a	n/a	284.546	288.281	288.546	n/a
28	1	8	63	288.512	4	rest.jpg	n/a	n/a	288.512	292.249	292.512	n/a
28	1	8	64	292.491	4	rest.jpg	n/a	n/a	292.491	296.225	296.491	n/a
28	1	9	65	296.518	4	Aircraft1_70%_32.jpg	0	0.75	296.518	300.248	298.2	0
28	1	9	66	300.522	4	Aircraft1_70%_49.jpg	0	0.75	300.522	304.252	301.452	0
28	1	9	67	304.518	4	Aircraft2_70%_22.jpg	1	0.75	304.518	308.25	305.54	1
28	1	9	68	308.526	4	Aircraft1_70%_34.jpg	0	0.75	308.526	312.258	309.459	0
28	1	9	69	312.541	4	Aircraft1_70%_14.jpg	0	0.75	312.541	316.271	316.541	0
28	1	9	70	316.551	4	rest.jpg	n/a	n/a	316.551	320.281	320.551	n/a
28	1	9	71	320.531	4	rest.jpg	n/a	n/a	320.531	324.262	324.531	n/a
28	1	9	72	324.5	4	rest.jpg	n/a	n/a	324.5	328.232	328.5	n/a
28	1	10	73	328.499	4	Aircraft1_10%_1.jpg	0	0.1	328.499	332.234	329.233	0
28	1	10	74	332.538	4	Aircraft1_10%_47.jpg	0	0.1	332.538	336.273	334.222	0
28	1	10	75	336.574	4	Aircraft1_10%_40.jpg	0	0.1	336.574	340.304	338.068	0
28	1	10	76	340.585	4	Aircraft1_10%_27.jpg	0	0.1	340.585	344.317	342.119	0
28	1	10	77	344.609	4	Aircraft2_10%_35.jpg	1	0.1	344.609	348.339	345.664	1
28	1	10	78	348.602	4	rest.jpg	n/a	n/a	348.602	352.339	352.602	n/a
28	1	10	79	352.571	4	rest.jpg	n/a	n/a	352.571	356.301	356.571	n/a
28	1	10	80	356.533	4	rest.jpg	n/a	n/a	356.533	360.269	360.533	n/a
28	1	11	81	360.566	4	Aircraft1_90%_32.jpg	0	0.9	360.566	364.303	363.134	0
28	1	11	82	364.603	4	Aircraft1_90%_49.jpg	0	0.9	364.603	368.34	366.777	0
28	1	11	83	368.632	4	Aircraft2_90%_22.jpg	1	0.9	368.632	372.362	369.87	1
28	1	11	84	372.632	4	Aircraft1_90%_34.jpg	0	0.9	372.632	376.371	373.941	0
28	1	11	85	376.641	4	Aircraft1_90%_14.jpg	0	0.9	376.641	380.377	379.114	0
28	1	11	86	380.657	4	rest.jpg	n/a	n/a	380.657	384.392	384.657	n/a
28	1	11	87	384.623	4	rest.jpg	n/a	n/a	384.623	388.36	388.623	n/a
28	1	11	88	388.605	4	rest.jpg	n/a	n/a	388.605	392.34	392.605	n/a
28	1	12	89	392.627	4	Aircraft2_70%_24.jpg	1	0.75	392.627	396.358	393.768	1
28	1	12	90	396.655	4	Aircraft2_70%_2.jpg	1	0.75	396.655	400.386	398.221	1
28	1	12	91	400.662	4	Aircraft2_70%_43.jpg	1	0.75	400.662	404.392	402.515	1
28	1	12	92	404.665	4	Aircraft2_70%_46.jpg	1	0.75	404.665	408.403	406.047	1
28	1	12	93	408.708	4	Aircraft1_70%_42.jpg	0	0.75	408.708	412.438	409.867	0
28	1	12	94	412.702	4	rest.jpg	n/a	n/a	412.702	416.432	416.702	n/a
28	1	12	95	416.68	4	rest.jpg	n/a	n/a	416.68	420.41	420.68	n/a
28	1	12	96	420.642	4	rest.jpg	n/a	n/a	420.642	424.371	424.642	n/a
28	1	13	97	424.649	4	Aircraft2_10%_30.jpg	1	0.1	424.649	428.385	426.865	1
28	1	13	98	428.686	4	Aircraft2_10%_27.jpg	1	0.1	428.686	432.417	430.269	1
28	1	13	99	432.719	4	Aircraft2_10%_50.jpg	1	0.1	432.719	436.448	434.163	1
28	1	13	100	436.725	4	Aircraft2_10%_29.jpg	1	0.1	436.725	440.455	438.059	1
28	1	13	101	440.75	4	Aircraft1_10%_6.jpg	0	0.1	440.75	444.486	442.13	0
28	1	13	102	444.75	4	rest.jpg	n/a	n/a	444.75	448.487	448.75	n/a
28	1	13	103	448.728	4	rest.jpg	n/a	n/a	448.728	452.465	452.728	n/a
28	1	13	104	452.71	4	rest.jpg	n/a	n/a	452.71	456.444	456.71	n/a
28	1	14	105	456.739	4	Aircraft2_90%_18.jpg	1	0.9	456.739	460.474	459.921	1
28	1	14	106	460.747	4	Aircraft1_90%_29.jpg	0	0.9	460.747	464.484	461.94	0
28	1	14	107	464.779	4	Aircraft2_90%_1.jpg	1	0.9	464.779	468.511	466.901	1
28	1	14	108	468.781	4	Aircraft1_90%_26.jpg	0	0.9	468.781	472.512	470.411	0
28	1	14	109	472.78	4	Aircraft2_90%_34.jpg	1	0.9	472.78	476.518	474.558	1
28	1	14	110	476.78	4	rest.jpg	n/a	n/a	476.78	480.51	480.78	n/a
28	1	14	111	480.757	4	rest.jpg	n/a	n/a	480.757	484.492	484.757	n/a
28	1	14	112	484.727	4	rest.jpg	n/a	n/a	484.727	488.457	488.727	n/a
28	1	15	113	488.781	4	Aircraft1_70%_17.jpg	0	0.75	488.781	492.513	491.776	0
28	1	15	114	492.807	4	Aircraft2_70%_42.jpg	1	0.75	492.807	496.539	494.338	1
28	1	15	115	496.845	4	Aircraft2_70%_44.jpg	1	0.75	496.845	500.578	497.725	1
28	1	15	116	500.877	4	Aircraft1_70%_10.jpg	0	0.75	500.877	504.615	502.52	0
28	1	15	117	504.918	4	Aircraft2_70%_25.jpg	1	0.75	504.918	508.649	506.167	1
28	1	15	118	508.928	4	rest.jpg	n/a	n/a	508.928	512.658	512.928	n/a
28	1	15	119	512.888	4	rest.jpg	n/a	n/a	512.888	516.618	516.888	n/a
28	1	15	120	516.848	4	rest.jpg	n/a	n/a	516.848	520.583	520.848	n/a
28	1	16	121	520.886	4	Aircraft1_10%_38.jpg	0	0.1	520.886	524.616	522.5	0
28	1	16	122	524.892	4	Aircraft2_10%_21.jpg	1	0.1	524.892	528.628	525.517	1
28	1	16	123	528.907	4	Aircraft1_10%_16.jpg	0	0.1	528.907	532.642	531.185	0
28	1	16	124	532.939	4	Aircraft1_10%_46.jpg	0	0.1	532.939	536.676	533.843	0
28	1	16	125	536.982	4	Aircraft2_10%_40.jpg	1	0.1	536.982	540.717	538.682	1
28	1	16	126	541.001	4	rest.jpg	n/a	n/a	541.001	544.732	545.001	n/a
28	1	16	127	544.962	4	rest.jpg	n/a	n/a	544.962	548.698	548.962	n/a
28	1	16	128	548.928	4	rest.jpg	n/a	n/a	548.928	552.664	552.928	n/a
28	1	17	129	552.951	4	Aircraft2_90%_4.jpg	1	0.9	552.951	556.683	555.013	1
28	1	17	130	556.953	4	Aircraft1_90%_43.jpg	0	0.9	556.953	560.685	559.037	0
28	1	17	131	560.98	4	Aircraft1_90%_9.jpg	0	0.9	560.98	564.717	564.98	0
28	1	17	132	565.009	4	Aircraft1_90%_11.jpg	0	0.9	565.009	568.746	565.26	0
28	1	17	133	569.049	4	Aircraft1_90%_50.jpg	0	0.9	569.049	572.782	570.371	0
28	1	17	134	573.062	4	rest.jpg	n/a	n/a	573.062	576.796	577.062	n/a
28	1	17	135	577.034	4	rest.jpg	n/a	n/a	577.034	580.763	581.034	n/a
28	1	17	136	580.996	4	rest.jpg	n/a	n/a	580.996	584.732	584.996	n/a
28	1	18	137	585.009	4	Aircraft1_70%_12.jpg	0	0.75	585.009	588.746	586.296	0
28	1	18	138	589.019	4	Aircraft2_70%_32.jpg	1	0.75	589.019	592.754	589.721	1
28	1	18	139	593.05	4	Aircraft2_70%_48.jpg	1	0.75	593.05	596.785	594.208	1
28	1	18	140	597.063	4	Aircraft1_70%_19.jpg	0	0.75	597.063	600.793	598.727	0
28	1	18	141	601.069	4	Aircraft1_70%_33.jpg	0	0.75	601.069	604.806	603.09	0
28	1	18	142	605.084	4	rest.jpg	n/a	n/a	605.084	608.815	609.084	n/a
28	1	18	143	609.046	4	rest.jpg	n/a	n/a	609.046	612.779	613.046	n/a
28	1	18	144	613.026	4	rest.jpg	n/a	n/a	613.026	616.755	617.026	n/a
28	1	19	145	617.039	4	Aircraft2_10%_23.jpg	1	0.1	617.039	620.772	619.263	1
28	1	19	146	621.082	4	Aircraft1_10%_28.jpg	0	0.1	621.082	624.812	621.805	0
28	1	19	147	625.105	4	Aircraft2_10%_13.jpg	1	0.1	625.105	628.84	626.563	1
28	1	19	148	629.115	4	Aircraft1_10%_45.jpg	0	0.1	629.115	632.852	631.203	0
28	1	19	149	633.141	4	Aircraft1_10%_37.jpg	0	0.1	633.141	636.874	634.26	0
28	1	19	150	637.138	4	rest.jpg	n/a	n/a	637.138	640.875	641.138	n/a
28	1	19	151	641.111	4	rest.jpg	n/a	n/a	641.111	644.842	645.111	n/a
28	1	19	152	645.091	4	rest.jpg	n/a	n/a	645.091	648.828	649.091	n/a
28	1	20	153	649.098	4	Aircraft2_90%_33.jpg	1	0.9	649.098	652.827	651.478	1
28	1	20	154	653.117	4	Aircraft2_90%_38.jpg	1	0.9	653.117	656.847	655.385	1
28	1	20	155	657.136	4	Aircraft1_90%_30.jpg	0	0.9	657.136	660.871	658.687	0
28	1	20	156	661.157	4	Aircraft1_90%_41.jpg	0	0.9	661.157	664.887	662.563	0
28	1	20	157	665.177	4	Aircraft1_90%_18.jpg	0	0.9	665.177	668.91	666.723	0
28	1	20	158	669.189	4	rest.jpg	n/a	n/a	669.189	672.919	673.189	n/a
28	1	20	159	673.169	4	rest.jpg	n/a	n/a	673.169	676.902	677.169	n/a
28	1	20	160	677.135	4	rest.jpg	n/a	n/a	677.135	680.865	681.135	n/a
28	1	21	161	681.141	4	Aircraft2_70%_9.jpg	1	0.75	681.141	684.876	682.071	1
28	1	21	162	685.176	4	Aircraft2_70%_6.jpg	1	0.75	685.176	688.911	687.328	1
28	1	21	163	689.186	4	Aircraft1_70%_23.jpg	0	0.75	689.186	692.918	691.716	0
28	1	21	164	693.204	4	Aircraft1_70%_21.jpg	0	0.75	693.204	696.936	695.143	0
28	1	21	165	697.211	4	Aircraft2_70%_36.jpg	1	0.75	697.211	700.948	698.51	1
28	1	21	166	701.228	4	rest.jpg	n/a	n/a	701.228	704.962	705.228	n/a
28	1	21	167	705.194	4	rest.jpg	n/a	n/a	705.194	708.923	709.194	n/a
28	1	21	168	709.172	4	rest.jpg	n/a	n/a	709.172	712.908	713.172	n/a
28	1	22	169	713.186	4	Aircraft2_10%_41.jpg	1	0.1	713.186	716.923	716.271	1
28	1	22	170	717.201	4	Aircraft1_10%_22.jpg	0	0.1	717.201	720.931	718.034	0
28	1	22	171	721.219	4	Aircraft1_10%_44.jpg	0	0.1	721.219	724.954	722.195	0
28	1	22	172	725.22	4	Aircraft1_10%_1.jpg	0	0.1	725.22	728.95	726.582	0
28	1	22	173	729.222	4	Aircraft2_10%_37.jpg	1	0.1	729.222	732.952	730.801	1
28	1	22	174	733.234	4	rest.jpg	n/a	n/a	733.234	736.966	737.234	n/a
28	1	22	175	737.201	4	rest.jpg	n/a	n/a	737.201	740.939	741.201	n/a
28	1	22	176	741.185	4	rest.jpg	n/a	n/a	741.185	744.92	745.185	n/a
28	1	23	177	745.214	4	Aircraft2_90%_31.jpg	1	0.9	745.214	748.946	747.841	1
28	1	23	178	749.235	4	Aircraft1_90%_4.jpg	0	0.9	749.235	752.971	750.876	0
28	1	23	179	753.256	4	Aircraft2_90%_20.jpg	1	0.9	753.256	756.99	756.163	1
28	1	23	180	757.275	4	Aircraft1_90%_7.jpg	0	0.9	757.275	761.01	759.075	0
28	1	23	181	761.281	4	Aircraft1_90%_8.jpg	0	0.9	761.281	765.017	763.859	0
28	1	23	182	765.288	4	rest.jpg	n/a	n/a	765.288	769.023	769.288	n/a
28	1	23	183	769.266	4	rest.jpg	n/a	n/a	769.266	773.003	773.266	n/a
28	1	23	184	773.251	4	rest.jpg	n/a	n/a	773.251	776.987	777.251	n/a
28	1	24	185	777.28	4	Aircraft2_70%_14.jpg	1	0.75	777.28	781.016	780.389	1
28	1	24	186	781.31	4	Aircraft2_70%_5.jpg	1	0.75	781.31	785.04	784.06	1
28	1	24	187	785.316	4	Aircraft2_70%_15.jpg	1	0.75	785.316	789.049	788.145	1
28	1	24	188	789.32	4	Aircraft2_70%_19.jpg	1	0.75	789.32	793.052	790.176	1
28	1	24	189	793.326	4	Aircraft1_70%_31.jpg	0	0.75	793.326	797.059	794.514	0
28	1	24	190	797.322	4	rest.jpg	n/a	n/a	797.322	801.059	801.322	n/a
28	1	24	191	801.303	4	rest.jpg	n/a	n/a	801.303	805.033	805.303	n/a
28	1	24	192	805.265	4	rest.jpg	n/a	n/a	805.265	808.995	809.265	n/a
28	1	25	193	809.273	4	Aircraft2_10%_9.jpg	1	0.1	809.273	813.01	812.436	1
28	1	25	194	813.306	4	Aircraft2_10%_6.jpg	1	0.1	813.306	817.043	814.246	1
28	1	25	195	817.321	4	Aircraft1_10%_23.jpg	0	0.1	817.321	821.056	818.039	0
28	1	25	196	821.336	4	Aircraft1_10%_21.jpg	0	0.1	821.336	825.068	822.208	0
28	1	25	197	825.342	4	Aircraft2_10%_36.jpg	1	0.1	825.342	829.073	827.448	1
28	1	25	198	829.352	4	rest.jpg	n/a	n/a	829.352	833.088	833.352	n/a
28	1	25	199	833.334	4	rest.jpg	n/a	n/a	833.334	837.07	837.334	n/a
28	1	25	200	837.306	4	rest.jpg	n/a	n/a	837.306	841.041	841.306	n/a
28	1	26	201	841.311	4	Aircraft2_90%_24.jpg	1	0.9	841.311	845.041	845.311	1
28	1	26	202	845.311	4	Aircraft2_90%_2.jpg	1	0.9	845.311	849.047	847.094	1
28	1	26	203	849.343	4	Aircraft2_90%_43.jpg	1	0.9	849.343	853.073	852.401	1
28	1	26	204	853.362	4	Aircraft2_90%_46.jpg	1	0.9	853.362	857.093	854.677	1
28	1	26	205	857.363	4	Aircraft1_90%_42.jpg	0	0.9	857.363	861.093	859.881	0
28	1	26	206	861.357	4	rest.jpg	n/a	n/a	861.357	865.088	865.357	n/a
28	1	26	207	865.324	4	rest.jpg	n/a	n/a	865.324	869.06	869.324	n/a
28	1	26	208	869.292	4	rest.jpg	n/a	n/a	869.292	873.024	873.292	n/a
28	1	27	209	873.313	4	Aircraft1_70%_3.jpg	0	0.75	873.313	877.043	874.788	0
28	1	27	210	877.336	4	Aircraft2_70%_28.jpg	1	0.75	877.336	881.066	880.346	1
28	1	27	211	881.346	4	Aircraft1_70%_24.jpg	0	0.75	881.346	885.076	883.357	0
28	1	27	212	885.374	4	Aircraft2_70%_39.jpg	1	0.75	885.374	889.109	886.448	1
28	1	27	213	889.384	4	Aircraft2_70%_8.jpg	1	0.75	889.384	893.114	892.873	1
28	1	27	214	893.383	4	rest.jpg	n/a	n/a	893.383	897.118	897.383	n/a
28	1	27	215	897.361	4	rest.jpg	n/a	n/a	897.361	901.091	901.361	n/a
28	1	27	216	901.321	4	rest.jpg	n/a	n/a	901.321	905.057	905.321	n/a
28	1	28	217	905.379	4	Aircraft1_10%_12.jpg	0	0.1	905.379	909.116	906.866	0
28	1	28	218	909.391	4	Aircraft2_10%_32.jpg	1	0.1	909.391	913.128	910.365	1
28	1	28	219	913.406	4	Aircraft2_10%_48.jpg	1	0.1	913.406	917.141	915.679	1
28	1	28	220	917.415	4	Aircraft1_10%_19.jpg	0	0.1	917.415	921.147	918.995	0
28	1	28	221	921.452	4	Aircraft1_10%_33.jpg	0	0.1	921.452	925.185	922.555	0
28	1	28	222	925.468	4	rest.jpg	n/a	n/a	925.468	929.199	929.468	n/a
28	1	28	223	929.431	4	rest.jpg	n/a	n/a	929.431	933.168	933.431	n/a
28	1	28	224	933.399	4	rest.jpg	n/a	n/a	933.399	937.134	937.399	n/a
28	1	29	225	937.42	4	Aircraft1_90%_17.jpg	0	0.9	937.42	941.152	939.287	0
28	1	29	226	941.44	4	Aircraft2_90%_42.jpg	1	0.9	941.44	945.17	944.103	1
28	1	29	227	945.44	4	Aircraft2_90%_44.jpg	1	0.9	945.44	949.172	948.07	1
28	1	29	228	949.468	4	Aircraft1_90%_10.jpg	0	0.9	949.468	953.204	951.521	0
28	1	29	229	953.497	4	Aircraft2_90%_25.jpg	1	0.9	953.497	957.227	954.353	1
28	1	29	230	957.49	4	rest.jpg	n/a	n/a	957.49	961.227	961.49	n/a
28	1	29	231	961.47	4	rest.jpg	n/a	n/a	961.47	965.2	965.47	n/a
28	1	29	232	965.434	4	rest.jpg	n/a	n/a	965.434	969.17	969.434	n/a
28	1	30	233	969.46	4	Aircraft1_70%_25.jpg	0	0.75	969.46	973.193	970.731	0
28	1	30	234	973.464	4	Aircraft2_70%_49.jpg	1	0.75	973.464	977.2	974.572	1
28	1	30	235	977.49	4	Aircraft2_70%_10.jpg	1	0.75	977.49	981.226	979.074	1
28	1	30	236	981.524	4	Aircraft2_70%_12.jpg	1	0.75	981.524	985.255	982.942	1
28	1	30	237	985.53	4	Aircraft2_70%_7.jpg	1	0.75	985.53	989.265	988.627	1
28	1	30	238	989.529	4	rest.jpg	n/a	n/a	989.529	993.265	993.529	n/a
28	1	30	239	993.509	4	rest.jpg	n/a	n/a	993.509	997.24	997.509	n/a
28	1	30	240	997.472	4	rest.jpg	n/a	n/a	997.472	1001.202	1001.472	n/a
