onset	duration	stim_file	stim_lable	levelOfOcclusion	stim_started	stim_stopped	key_time	key_fix	stim_started_1	stim_stopped_1	key_time_1	key_fix_1
39.988	4	Aircraft1_10%_17.jpg	0	0.1	39.988	43.718	40.649	0	39.988	43.718	40.649	0
44.007	4	Aircraft2_10%_42.jpg	1	0.1	44.007	47.744	44.48	1	44.007	47.744	44.48	1
48.015	4	Aircraft2_10%_44.jpg	1	0.1	48.015	51.753	48.704	1	48.015	51.753	48.704	1
52.046	4	Aircraft1_10%_10.jpg	0	0.1	52.046	55.779	52.56	0	52.046	55.779	52.56	0
56.064	4	Aircraft2_10%_25.jpg	1	0.1	56.064	59.793	56.561	1	56.064	59.793	56.561	1
60.067	4	rest.jpg	NaN	NaN	60.067	63.804	64.067	NaN	60.067	63.804	64.067	NaN
64.038	4	rest.jpg	NaN	NaN	64.038	67.77	68.038	NaN	64.038	67.77	68.038	NaN
68.005	4	rest.jpg	NaN	NaN	68.005	71.735	72.005	NaN	68.005	71.735	72.005	NaN
72.002	4	Aircraft1_90%_12.jpg	0	0.9	72.002	75.739	72.874	0	72.002	75.739	72.874	0
76.026	4	Aircraft2_90%_32.jpg	1	0.9	76.026	79.765	76.676	1	76.026	79.765	76.676	1
80.047	4	Aircraft2_90%_48.jpg	1	0.9	80.047	83.777	81.374	1	80.047	83.777	81.374	1
84.063	4	Aircraft1_90%_19.jpg	0	0.9	84.063	87.798	86.197	0	84.063	87.798	86.197	0
88.066	4	Aircraft1_90%_33.jpg	0	0.9	88.066	91.795	89.95	0	88.066	91.795	89.95	0
92.088	4	rest.jpg	NaN	NaN	92.088	95.822	96.088	NaN	92.088	95.822	96.088	NaN
96.057	4	rest.jpg	NaN	NaN	96.057	99.792	100.057	NaN	96.057	99.792	100.057	NaN
100.028	4	rest.jpg	NaN	NaN	100.028	103.762	104.028	NaN	100.028	103.762	104.028	NaN
104.048	4	Aircraft2_70%_33.jpg	1	0.75	104.048	107.783	104.722	1	104.048	107.783	104.722	1
108.076	4	Aircraft2_70%_38.jpg	1	0.75	108.076	111.81	109.663	1	108.076	111.81	109.663	1
112.084	4	Aircraft1_70%_30.jpg	0	0.75	112.084	115.813	112.752	0	112.084	115.813	112.752	0
116.1	4	Aircraft1_70%_41.jpg	0	0.75	116.1	119.834	117.229	0	116.1	119.834	117.229	0
120.109	4	Aircraft1_70%_18.jpg	0	0.75	120.109	123.845	120.92	0	120.109	123.845	120.92	0
124.116	4	rest.jpg	NaN	NaN	124.116	127.845	128.116	NaN	124.116	127.845	128.116	NaN
128.08	4	rest.jpg	NaN	NaN	128.08	131.811	132.08	NaN	128.08	131.811	132.08	NaN
132.045	4	rest.jpg	NaN	NaN	132.045	135.78	136.045	NaN	132.045	135.78	136.045	NaN
136.071	4	Aircraft2_10%_24.jpg	1	0.1	136.071	139.807	137.206	1	136.071	139.807	137.206	1
140.1	4	Aircraft2_10%_2.jpg	1	0.1	140.1	143.833	140.694	1	140.1	143.833	140.694	1
144.112	4	Aircraft2_10%_43.jpg	1	0.1	144.112	147.846	144.835	1	144.112	147.846	144.835	1
148.121	4	Aircraft2_10%_46.jpg	1	0.1	148.121	151.853	148.684	1	148.121	151.853	148.684	1
152.145	4	Aircraft1_10%_42.jpg	0	0.1	152.145	155.876	152.653	0	152.145	155.876	152.653	0
156.17	4	rest.jpg	NaN	NaN	156.17	159.9	160.17	NaN	156.17	159.9	160.17	NaN
160.141	4	rest.jpg	NaN	NaN	160.141	163.872	164.141	NaN	160.141	163.872	164.141	NaN
164.116	4	rest.jpg	NaN	NaN	164.116	167.848	168.116	NaN	164.116	167.848	168.116	NaN
168.116	4	Aircraft2_90%_9.jpg	1	0.9	168.116	171.85	171.001	1	168.116	171.85	171.001	1
172.118	4	Aircraft2_90%_6.jpg	1	0.9	172.118	175.853	174.271	1	172.118	175.853	174.271	1
176.123	4	Aircraft1_90%_23.jpg	0	0.9	176.123	179.852	178.227	0	176.123	179.852	178.227	0
180.139	4	Aircraft1_90%_21.jpg	0	0.9	180.139	183.87	182.751	0	180.139	183.87	182.751	0
184.153	4	Aircraft2_90%_36.jpg	1	0.9	184.153	187.882	186.11	1	184.153	187.882	186.11	1
188.152	4	rest.jpg	NaN	NaN	188.152	191.886	192.152	NaN	188.152	191.886	192.152	NaN
192.135	4	rest.jpg	NaN	NaN	192.135	195.864	196.135	NaN	192.135	195.864	196.135	NaN
196.115	4	rest.jpg	NaN	NaN	196.115	199.848	200.115	NaN	196.115	199.848	200.115	NaN
200.138	4	Aircraft2_70%_31.jpg	1	0.75	200.138	203.872	200.935	1	200.138	203.872	200.935	1
204.166	4	Aircraft1_70%_4.jpg	0	0.75	204.166	207.895	204.811	0	204.166	207.895	204.811	0
208.186	4	Aircraft2_70%_20.jpg	1	0.75	208.186	211.918	209.009	1	208.186	211.918	209.009	1
212.215	4	Aircraft1_70%_7.jpg	0	0.75	212.215	215.944	213.247	0	212.215	215.944	213.247	0
216.23	4	Aircraft1_70%_8.jpg	0	0.75	216.23	219.961	217.092	0	216.23	219.961	217.092	0
220.242	4	rest.jpg	NaN	NaN	220.242	223.979	224.242	NaN	220.242	223.979	224.242	NaN
224.228	4	rest.jpg	NaN	NaN	224.228	227.957	228.228	NaN	224.228	227.957	228.228	NaN
228.208	4	rest.jpg	NaN	NaN	228.208	231.94	232.208	NaN	228.208	231.94	232.208	NaN
232.232	4	Aircraft2_10%_31.jpg	1	0.1	232.232	235.966	233.122	1	232.232	235.966	233.122	1
236.243	4	Aircraft1_10%_4.jpg	0	0.1	236.243	239.974	236.846	0	236.243	239.974	236.846	0
240.26	4	Aircraft2_10%_20.jpg	1	0.1	240.26	243.997	240.937	1	240.26	243.997	240.937	1
244.284	4	Aircraft1_10%_7.jpg	0	0.1	244.284	248.018	245.015	0	244.284	248.018	245.015	0
248.304	4	Aircraft1_10%_8.jpg	0	0.1	248.304	252.04	248.978	0	248.304	252.04	248.978	0
252.329	4	rest.jpg	NaN	NaN	252.329	256.059	256.329	NaN	252.329	256.059	256.329	NaN
256.302	4	rest.jpg	NaN	NaN	256.302	260.038	260.302	NaN	256.302	260.038	260.302	NaN
260.272	4	rest.jpg	NaN	NaN	260.272	264.001	264.272	NaN	260.272	264.001	264.272	NaN
264.28	4	Aircraft2_90%_41.jpg	1	0.9	264.28	268.016	266.327	1	264.28	268.016	266.327	1
268.3	4	Aircraft1_90%_22.jpg	0	0.9	268.3	272.031	268.894	0	268.3	272.031	268.894	0
272.297	4	Aircraft1_90%_44.jpg	0	0.9	272.297	276.028	273.129	0	272.297	276.028	273.129	0
276.296	4	Aircraft1_90%_1.jpg	0	0.9	276.296	280.025	278.018	0	276.296	280.025	278.018	0
280.297	4	Aircraft2_90%_37.jpg	1	0.9	280.297	284.031	280.734	1	280.297	284.031	280.734	1
284.319	4	rest.jpg	NaN	NaN	284.319	288.048	288.319	NaN	284.319	288.048	288.319	NaN
288.282	4	rest.jpg	NaN	NaN	288.282	292.017	292.282	NaN	288.282	292.017	292.282	NaN
292.264	4	rest.jpg	NaN	NaN	292.264	295.993	296.264	NaN	292.264	295.993	296.264	NaN
296.283	4	Aircraft2_70%_41.jpg	1	0.75	296.283	300.015	297.164	1	296.283	300.015	297.164	1
300.307	4	Aircraft1_70%_22.jpg	0	0.75	300.307	304.042	300.903	0	300.307	304.042	300.903	0
304.332	4	Aircraft1_70%_44.jpg	0	0.75	304.332	308.064	305.02	0	304.332	308.064	305.02	0
308.355	4	Aircraft1_70%_1.jpg	0	0.75	308.355	312.084	309.051	0	308.355	312.084	309.051	0
312.356	4	Aircraft2_70%_37.jpg	1	0.75	312.356	316.087	313.182	1	312.356	316.087	313.182	1
316.37	4	rest.jpg	NaN	NaN	316.37	320.1	320.37	NaN	316.37	320.1	320.37	NaN
320.334	4	rest.jpg	NaN	NaN	320.334	324.066	324.334	NaN	320.334	324.066	324.334	NaN
324.3	4	rest.jpg	NaN	NaN	324.3	328.034	328.3	NaN	324.3	328.034	328.3	NaN
328.323	4	Aircraft2_10%_33.jpg	1	0.1	328.323	332.057	328.949	1	328.323	332.057	328.949	1
332.324	4	Aircraft2_10%_38.jpg	1	0.1	332.324	336.058	333.131	1	332.324	336.058	333.131	1
336.34	4	Aircraft1_10%_30.jpg	0	0.1	336.34	340.07	337.12	0	336.34	340.07	337.12	0
340.362	4	Aircraft1_10%_41.jpg	0	0.1	340.362	344.091	341.053	0	340.362	344.091	341.053	0
344.374	4	Aircraft1_10%_18.jpg	0	0.1	344.374	348.104	345.129	0	344.374	348.104	345.129	0
348.37	4	rest.jpg	NaN	NaN	348.37	352.101	352.37	NaN	348.37	352.101	352.37	NaN
352.35	4	rest.jpg	NaN	NaN	352.35	356.085	356.35	NaN	352.35	356.085	356.35	NaN
356.318	4	rest.jpg	NaN	NaN	356.318	360.052	360.318	NaN	356.318	360.052	360.318	NaN
360.332	4	Aircraft2_90%_23.jpg	1	0.9	360.332	364.062	362.078	1	360.332	364.062	362.078	1
364.345	4	Aircraft1_90%_28.jpg	0	0.9	364.345	368.077	365.124	0	364.345	368.077	365.124	0
368.359	4	Aircraft2_90%_13.jpg	1	0.9	368.359	372.093	369.591	1	368.359	372.093	369.591	1
372.361	4	Aircraft1_90%_45.jpg	0	0.9	372.361	376.097	373.038	0	372.361	376.097	373.038	0
376.364	4	Aircraft1_90%_37.jpg	0	0.9	376.364	380.1	377.085	0	376.364	380.1	377.085	0
380.371	4	rest.jpg	NaN	NaN	380.371	384.101	384.371	NaN	380.371	384.101	384.371	NaN
384.35	4	rest.jpg	NaN	NaN	384.35	388.082	388.35	NaN	384.35	388.082	388.35	NaN
388.316	4	rest.jpg	NaN	NaN	388.316	392.045	392.316	NaN	388.316	392.045	392.316	NaN
392.329	4	Aircraft1_70%_2.jpg	0	0.75	392.329	396.058	393.661	0	392.329	396.058	393.661	0
396.346	4	Aircraft1_70%_39.jpg	0	0.75	396.346	400.076	396.999	0	396.346	400.076	396.999	0
400.364	4	Aircraft2_70%_26.jpg	1	0.75	400.364	404.096	401.037	1	400.364	404.096	401.037	1
404.384	4	Aircraft1_70%_15.jpg	0	0.75	404.384	408.114	404.93	0	404.384	408.114	404.93	0
408.402	4	Aircraft2_70%_16.jpg	1	0.75	408.402	412.133	409.088	1	408.402	412.133	409.088	1
412.42	4	rest.jpg	NaN	NaN	412.42	416.155	416.42	NaN	412.42	416.155	416.42	NaN
416.389	4	rest.jpg	NaN	NaN	416.389	420.124	420.389	NaN	416.389	420.124	420.389	NaN
420.358	4	rest.jpg	NaN	NaN	420.358	424.088	424.358	NaN	420.358	424.088	424.358	NaN
424.362	4	Aircraft2_10%_4.jpg	1	0.1	424.362	428.097	425.107	1	424.362	428.097	425.107	1
428.372	4	Aircraft1_10%_43.jpg	0	0.1	428.372	432.103	428.917	0	428.372	432.103	428.917	0
432.377	4	Aircraft1_10%_9.jpg	0	0.1	432.377	436.107	432.925	0	432.377	436.107	432.925	0
436.396	4	Aircraft1_10%_11.jpg	0	0.1	436.396	440.125	436.9	0	436.396	440.125	436.9	0
440.394	4	Aircraft1_10%_50.jpg	0	0.1	440.394	444.13	441.109	0	440.394	444.13	441.109	0
444.419	4	rest.jpg	NaN	NaN	444.419	448.155	448.419	NaN	444.419	448.155	448.419	NaN
448.404	4	rest.jpg	NaN	NaN	448.404	452.133	452.404	NaN	448.404	452.133	452.404	NaN
452.367	4	rest.jpg	NaN	NaN	452.367	456.096	456.367	NaN	452.367	456.096	456.367	NaN
456.379	4	Aircraft1_90%_38.jpg	0	0.9	456.379	460.108	457.126	0	456.379	460.108	457.126	0
460.39	4	Aircraft2_90%_21.jpg	1	0.9	460.39	464.121	462.013	1	460.39	464.121	462.013	1
464.403	4	Aircraft1_90%_16.jpg	0	0.9	464.403	468.132	465.42	0	464.403	468.132	465.42	0
468.418	4	Aircraft1_90%_46.jpg	0	0.9	468.418	472.149	469.736	0	468.418	472.149	469.736	0
472.431	4	Aircraft2_90%_40.jpg	1	0.9	472.431	476.162	472.868	1	472.431	476.162	472.868	1
476.431	4	rest.jpg	NaN	NaN	476.431	480.161	480.431	NaN	476.431	480.161	480.431	NaN
480.393	4	rest.jpg	NaN	NaN	480.393	484.128	484.393	NaN	480.393	484.128	484.393	NaN
484.362	4	rest.jpg	NaN	NaN	484.362	488.097	488.362	NaN	484.362	488.097	488.362	NaN
488.378	4	Aircraft1_70%_36.jpg	0	0.75	488.378	492.11	489.378	0	488.378	492.11	489.378	0
492.401	4	Aircraft1_70%_35.jpg	0	0.75	492.401	496.13	492.948	0	492.401	496.13	492.948	0
496.418	4	Aircraft2_70%_3.jpg	1	0.75	496.418	500.147	497.583	1	496.418	500.147	497.583	1
500.436	4	Aircraft1_70%_5.jpg	0	0.75	500.436	504.166	501.142	0	500.436	504.166	501.142	0
504.453	4	Aircraft1_70%_48.jpg	0	0.75	504.453	508.186	505.129	0	504.453	508.186	505.129	0
508.454	4	rest.jpg	NaN	NaN	508.454	512.19	512.454	NaN	508.454	512.19	512.454	NaN
512.433	4	rest.jpg	NaN	NaN	512.433	516.165	516.433	NaN	512.433	516.165	516.433	NaN
516.416	4	rest.jpg	NaN	NaN	516.416	520.148	520.416	NaN	516.416	520.148	520.416	NaN
520.423	4	Aircraft2_10%_18.jpg	1	0.1	520.423	524.154	521.114	1	520.423	524.154	521.114	1
524.439	4	Aircraft1_10%_29.jpg	0	0.1	524.439	528.168	525.015	0	524.439	528.168	525.015	0
528.438	4	Aircraft2_10%_1.jpg	1	0.1	528.438	532.167	529.131	1	528.438	532.167	529.131	1
532.455	4	Aircraft1_10%_26.jpg	0	0.1	532.455	536.184	532.985	0	532.455	536.184	532.985	0
536.465	4	Aircraft2_10%_34.jpg	1	0.1	536.465	540.198	537.138	1	536.465	540.198	537.138	1
540.484	4	rest.jpg	NaN	NaN	540.484	544.213	544.484	NaN	540.484	544.213	544.484	NaN
544.46	4	rest.jpg	NaN	NaN	544.46	548.195	548.46	NaN	544.46	548.195	548.46	NaN
548.427	4	rest.jpg	NaN	NaN	548.427	552.162	552.427	NaN	548.427	552.162	552.427	NaN
552.431	4	Aircraft2_90%_30.jpg	1	0.9	552.431	556.162	553.723	1	552.431	556.162	553.723	1
556.445	4	Aircraft2_90%_27.jpg	1	0.9	556.445	560.179	558.008	1	556.445	560.179	558.008	1
560.462	4	Aircraft2_90%_50.jpg	1	0.9	560.462	564.195	561.675	1	560.462	564.195	561.675	1
564.481	4	Aircraft2_90%_29.jpg	1	0.9	564.481	568.217	566.681	1	564.481	568.217	566.681	1
568.501	4	Aircraft1_90%_6.jpg	0	0.9	568.501	572.233	569.251	0	568.501	572.233	569.251	0
572.524	4	rest.jpg	NaN	NaN	572.524	576.252	576.524	NaN	572.524	576.252	576.524	NaN
576.499	4	rest.jpg	NaN	NaN	576.499	580.234	580.499	NaN	576.499	580.234	580.499	NaN
580.486	4	rest.jpg	NaN	NaN	580.486	584.22	584.486	NaN	580.486	584.22	584.486	NaN
584.508	4	Aircraft2_70%_17.jpg	1	0.75	584.508	588.239	586.225	1	584.508	588.239	586.225	1
588.526	4	Aircraft2_70%_11.jpg	1	0.75	588.526	592.257	589.38	1	588.526	592.257	589.38	1
592.539	4	Aircraft1_70%_20.jpg	0	0.75	592.539	596.272	593.176	0	592.539	596.272	593.176	0
596.559	4	Aircraft2_70%_47.jpg	1	0.75	596.559	600.295	597.613	1	596.559	600.295	597.613	1
600.567	4	Aircraft2_70%_45.jpg	1	0.75	600.567	604.296	602.436	1	600.567	604.296	602.436	1
604.584	4	rest.jpg	NaN	NaN	604.584	608.313	608.584	NaN	604.584	608.313	608.584	NaN
608.546	4	rest.jpg	NaN	NaN	608.546	612.282	612.546	NaN	608.546	612.282	612.546	NaN
612.529	4	rest.jpg	NaN	NaN	612.529	616.266	616.529	NaN	612.529	616.266	616.529	NaN
616.554	4	Aircraft1_10%_32.jpg	0	0.1	616.554	620.283	617.119	0	616.554	620.283	617.119	0
620.574	4	Aircraft1_10%_49.jpg	0	0.1	620.574	624.306	621.662	0	620.574	624.306	621.662	0
624.596	4	Aircraft2_10%_22.jpg	1	0.1	624.596	628.331	625.177	1	624.596	628.331	625.177	1
628.602	4	Aircraft1_10%_34.jpg	0	0.1	628.602	632.331	629.463	0	628.602	632.331	629.463	0
632.621	4	Aircraft1_10%_14.jpg	0	0.1	632.621	636.351	633.329	0	632.621	636.351	633.329	0
636.621	4	rest.jpg	NaN	NaN	636.621	640.353	640.621	NaN	636.621	640.353	640.621	NaN
640.606	4	rest.jpg	NaN	NaN	640.606	644.338	644.606	NaN	640.606	644.338	644.606	NaN
644.572	4	rest.jpg	NaN	NaN	644.572	648.3	648.572	NaN	644.572	648.3	648.572	NaN
648.58	4	Aircraft1_90%_1.jpg	0	0.9	648.58	652.315	649.588	0	648.58	652.315	649.588	0
652.583	4	Aircraft1_90%_47.jpg	0	0.9	652.583	656.317	653.801	0	652.583	656.317	653.801	0
656.599	4	Aircraft1_90%_40.jpg	0	0.9	656.599	660.333	657.626	0	656.599	660.333	657.626	0
660.6	4	Aircraft1_90%_27.jpg	0	0.9	660.6	664.337	662.53	0	660.6	664.337	662.53	0
664.623	4	Aircraft2_90%_35.jpg	1	0.9	664.623	668.357	665.174	1	664.623	668.357	665.174	1
668.644	4	rest.jpg	NaN	NaN	668.644	672.376	672.644	NaN	668.644	672.376	672.644	NaN
672.61	4	rest.jpg	NaN	NaN	672.61	676.339	676.61	NaN	672.61	676.339	676.61	NaN
676.574	4	rest.jpg	NaN	NaN	676.574	680.308	680.574	NaN	676.574	680.308	680.574	NaN
680.597	4	Aircraft2_70%_23.jpg	1	0.75	680.597	684.327	681.661	1	680.597	684.327	681.661	1
684.613	4	Aircraft1_70%_28.jpg	0	0.75	684.613	688.344	685.281	0	684.613	688.344	685.281	0
688.615	4	Aircraft2_70%_13.jpg	1	0.75	688.615	692.345	689.284	1	688.615	692.345	689.284	1
692.633	4	Aircraft1_70%_45.jpg	0	0.75	692.633	696.369	693.632	0	692.633	696.369	693.632	0
696.641	4	Aircraft1_70%_37.jpg	0	0.75	696.641	700.372	697.291	0	696.641	700.372	697.291	0
700.644	4	rest.jpg	NaN	NaN	700.644	704.375	704.644	NaN	700.644	704.375	704.644	NaN
704.609	4	rest.jpg	NaN	NaN	704.609	708.338	708.609	NaN	704.609	708.338	708.609	NaN
708.582	4	rest.jpg	NaN	NaN	708.582	712.311	712.582	NaN	708.582	712.311	712.582	NaN
712.585	4	Aircraft1_10%_25.jpg	0	0.1	712.585	716.317	713.298	0	712.585	716.317	713.298	0
716.592	4	Aircraft2_10%_49.jpg	1	0.1	716.592	720.32	717.242	1	716.592	720.32	717.242	1
720.608	4	Aircraft2_10%_10.jpg	1	0.1	720.608	724.337	721.308	1	720.608	724.337	721.308	1
724.626	4	Aircraft2_10%_12.jpg	1	0.1	724.626	728.362	725.378	1	724.626	728.362	725.378	1
728.644	4	Aircraft2_10%_7.jpg	1	0.1	728.644	732.379	729.458	1	728.644	732.379	729.458	1
732.649	4	rest.jpg	NaN	NaN	732.649	736.378	736.649	NaN	732.649	736.378	736.649	NaN
736.628	4	rest.jpg	NaN	NaN	736.628	740.364	740.628	NaN	736.628	740.364	740.628	NaN
740.607	4	rest.jpg	NaN	NaN	740.607	744.337	744.607	NaN	740.607	744.337	744.607	NaN
744.62	4	Aircraft2_90%_17.jpg	1	0.9	744.62	748.355	745.314	1	744.62	748.355	745.314	1
748.639	4	Aircraft2_90%_11.jpg	1	0.9	748.639	752.368	749.336	1	748.639	752.368	749.336	1
752.643	4	Aircraft1_90%_20.jpg	0	0.9	752.643	756.371	753.359	0	752.643	756.371	753.359	0
756.655	4	Aircraft2_90%_47.jpg	1	0.9	756.655	760.39	757.173	1	756.655	760.39	757.173	1
760.655	4	Aircraft2_90%_45.jpg	1	0.9	760.655	764.384	762.059	1	760.655	764.384	762.059	1
764.671	4	rest.jpg	NaN	NaN	764.671	768.4	768.671	NaN	764.671	768.4	768.671	NaN
768.648	4	rest.jpg	NaN	NaN	768.648	772.379	772.648	NaN	768.648	772.379	772.648	NaN
772.613	4	rest.jpg	NaN	NaN	772.613	776.344	776.613	NaN	772.613	776.344	776.613	NaN
776.614	4	Aircraft1_70%_38.jpg	0	0.75	776.614	780.348	777.497	0	776.614	780.348	777.497	0
780.633	4	Aircraft2_70%_21.jpg	1	0.75	780.633	784.368	781.399	1	780.633	784.368	781.399	1
784.653	4	Aircraft1_70%_16.jpg	0	0.75	784.653	788.388	785.281	0	784.653	788.388	785.281	0
788.661	4	Aircraft1_70%_46.jpg	0	0.75	788.661	792.39	789.419	0	788.661	792.39	789.419	0
792.677	4	Aircraft2_70%_40.jpg	1	0.75	792.677	796.406	793.287	1	792.677	796.406	793.287	1
796.693	4	rest.jpg	NaN	NaN	796.693	800.424	800.693	NaN	796.693	800.424	800.693	NaN
800.667	4	rest.jpg	NaN	NaN	800.667	804.396	804.667	NaN	800.667	804.396	804.667	NaN
804.645	4	rest.jpg	NaN	NaN	804.645	808.381	808.645	NaN	804.645	808.381	808.645	NaN
808.672	4	Aircraft1_10%_3.jpg	0	0.1	808.672	812.408	809.265	0	808.672	812.408	809.265	0
812.678	4	Aircraft2_10%_28.jpg	1	0.1	812.678	816.407	813.568	1	812.678	816.407	813.568	1
816.682	4	Aircraft1_10%_24.jpg	0	0.1	816.682	820.418	817.237	0	816.682	820.418	817.237	0
820.7	4	Aircraft2_10%_39.jpg	1	0.1	820.7	824.429	821.286	1	820.7	824.429	821.286	1
824.699	4	Aircraft2_10%_8.jpg	1	0.1	824.699	828.427	825.607	1	824.699	828.427	825.607	1
828.714	4	rest.jpg	NaN	NaN	828.714	832.443	832.714	NaN	828.714	832.443	832.714	NaN
832.691	4	rest.jpg	NaN	NaN	832.691	836.422	836.691	NaN	832.691	836.422	836.691	NaN
836.654	4	rest.jpg	NaN	NaN	836.654	840.389	840.654	NaN	836.654	840.389	840.654	NaN
840.675	4	Aircraft1_90%_36.jpg	0	0.9	840.675	844.404	841.285	0	840.675	844.404	841.285	0
844.69	4	Aircraft1_90%_35.jpg	0	0.9	844.69	848.42	845.23	0	844.69	848.42	845.23	0
848.698	4	Aircraft2_90%_3.jpg	1	0.9	848.698	852.429	850.554	1	848.698	852.429	850.554	1
852.715	4	Aircraft1_90%_5.jpg	0	0.9	852.715	856.446	853.28	0	852.715	856.446	853.28	0
856.712	4	Aircraft1_90%_48.jpg	0	0.9	856.712	860.446	857.541	0	856.712	860.446	857.541	0
860.715	4	rest.jpg	NaN	NaN	860.715	864.452	864.715	NaN	860.715	864.452	864.715	NaN
864.699	4	rest.jpg	NaN	NaN	864.699	868.428	868.699	NaN	864.699	868.428	868.699	NaN
868.662	4	rest.jpg	NaN	NaN	868.662	872.397	872.662	NaN	868.662	872.397	872.662	NaN
872.67	4	Aircraft2_70%_30.jpg	1	0.75	872.67	876.399	873.613	1	872.67	876.399	873.613	1
876.673	4	Aircraft2_70%_27.jpg	1	0.75	876.673	880.403	877.439	1	876.673	880.403	877.439	1
880.689	4	Aircraft2_70%_50.jpg	1	0.75	880.689	884.421	881.41	1	880.689	884.421	881.41	1
884.702	4	Aircraft2_70%_29.jpg	1	0.75	884.702	888.433	885.497	1	884.702	888.433	885.497	1
888.719	4	Aircraft1_70%_6.jpg	0	0.75	888.719	892.451	889.183	0	888.719	892.451	889.183	0
892.737	4	rest.jpg	NaN	NaN	892.737	896.466	896.737	NaN	892.737	896.466	896.737	NaN
896.699	4	rest.jpg	NaN	NaN	896.699	900.434	900.699	NaN	896.699	900.434	900.699	NaN
900.667	4	rest.jpg	NaN	NaN	900.667	904.404	904.667	NaN	900.667	904.404	904.667	NaN
904.679	4	Aircraft2_10%_14.jpg	1	0.1	904.679	908.413	905.492	1	904.679	908.413	905.492	1
908.698	4	Aircraft2_10%_5.jpg	1	0.1	908.698	912.429	909.47	1	908.698	912.429	909.47	1
912.721	4	Aircraft2_10%_15.jpg	1	0.1	912.721	916.455	913.16	1	912.721	916.455	913.16	1
916.726	4	Aircraft2_10%_19.jpg	1	0.1	916.726	920.457	917.251	1	916.726	920.457	917.251	1
920.749	4	Aircraft1_10%_31.jpg	0	0.1	920.749	924.478	921.169	0	920.749	924.478	921.169	0
924.766	4	rest.jpg	NaN	NaN	924.766	928.5	928.766	NaN	924.766	928.5	928.766	NaN
928.734	4	rest.jpg	NaN	NaN	928.734	932.462	932.734	NaN	928.734	932.462	932.734	NaN
932.702	4	rest.jpg	NaN	NaN	932.702	936.436	936.702	NaN	932.702	936.436	936.702	NaN
936.696	4	Aircraft1_90%_2.jpg	0	0.9	936.696	940.432	937.73	0	936.696	940.432	937.73	0
940.711	4	Aircraft1_90%_39.jpg	0	0.9	940.711	944.446	941.482	0	940.711	944.446	941.482	0
944.71	4	Aircraft2_90%_26.jpg	1	0.9	944.71	948.444	945.297	1	944.71	948.444	945.297	1
948.704	4	Aircraft1_90%_15.jpg	0	0.9	948.704	952.435	949.407	0	948.704	952.435	949.407	0
952.714	4	Aircraft2_90%_16.jpg	1	0.9	952.714	956.443	954.894	1	952.714	956.443	954.894	1
956.722	4	rest.jpg	NaN	NaN	956.722	960.453	960.722	NaN	956.722	960.453	960.722	NaN
960.702	4	rest.jpg	NaN	NaN	960.702	964.437	964.702	NaN	960.702	964.437	964.702	NaN
964.686	4	rest.jpg	NaN	NaN	964.686	968.421	968.686	NaN	964.686	968.421	968.686	NaN
968.704	4	Aircraft1_70%_1.jpg	0	0.75	968.704	972.433	969.396	0	968.704	972.433	969.396	0
972.717	4	Aircraft1_70%_47.jpg	0	0.75	972.717	976.448	973.315	0	972.717	976.448	973.315	0
976.73	4	Aircraft1_70%_40.jpg	0	0.75	976.73	980.462	977.249	0	976.73	980.462	977.249	0
980.743	4	Aircraft1_70%_27.jpg	0	0.75	980.743	984.472	981.497	0	980.743	984.472	981.497	0
984.757	4	Aircraft2_70%_35.jpg	1	0.75	984.757	988.492	985.27	1	984.757	988.492	985.27	1
988.774	4	rest.jpg	NaN	NaN	988.774	992.503	992.774	NaN	988.774	992.503	992.774	NaN
992.748	4	rest.jpg	NaN	NaN	992.748	996.477	996.748	NaN	992.748	996.477	996.748	NaN
996.727	4	rest.jpg	NaN	NaN	996.727	1000.461	1000.727	NaN	996.727	1000.461	1000.727	NaN
