sub	run	block	trail	oneset	duration	stim_file	stim_lable	level of occlusion	stim_started	stim_stopped	key_time	key_fix
33	1	1	1	39.986	4	Aircraft1_10%_2.jpg	0	0.1	39.986	43.72	41.658	0
33	1	1	2	43.984	4	Aircraft1_10%_39.jpg	0	0.1	43.984	47.721	45.334	0
33	1	1	3	47.997	4	Aircraft2_10%_26.jpg	1	0.1	47.997	51.73	49.295	1
33	1	1	4	52.017	4	Aircraft1_10%_15.jpg	0	0.1	52.017	55.749	52.986	0
33	1	1	5	56.033	4	Aircraft2_10%_16.jpg	1	0.1	56.033	59.77	57.875	1
33	1	1	6	60.054	4	rest.jpg	n/a	n/a	60.054	63.784	64.054	n/a
33	1	1	7	64.032	4	rest.jpg	n/a	n/a	64.032	67.772	68.032	n/a
33	1	1	8	68.021	4	rest.jpg	n/a	n/a	68.021	71.764	72.021	n/a
33	1	2	9	72.044	4	Aircraft2_90%_14.jpg	1	0.9	72.044	75.775	73.67	1
33	1	2	10	76.054	4	Aircraft2_90%_5.jpg	1	0.9	76.054	79.786	77.519	1
33	1	2	11	80.045	4	Aircraft2_90%_15.jpg	1	0.9	80.045	83.782	81.146	1
33	1	2	12	84.043	4	Aircraft2_90%_19.jpg	1	0.9	84.043	87.774	85.643	1
33	1	2	13	88.047	4	Aircraft1_90%_31.jpg	0	0.9	88.047	91.784	89.64	0
33	1	2	14	92.068	4	rest.jpg	n/a	n/a	92.068	95.797	96.068	n/a
33	1	2	15	96.029	4	rest.jpg	n/a	n/a	96.029	99.76	100.029	n/a
33	1	2	16	100.011	4	rest.jpg	n/a	n/a	100.011	103.748	104.011	n/a
33	1	3	17	104.015	4	Aircraft2_70%_4.jpg	1	0.75	104.015	107.75	105.205	1
33	1	3	18	108.017	4	Aircraft1_70%_43.jpg	0	0.75	108.017	111.749	109.254	0
33	1	3	19	112.016	4	Aircraft1_70%_9.jpg	0	0.75	112.016	115.751	113.338	0
33	1	3	20	116.016	4	Aircraft1_70%_11.jpg	0	0.75	116.016	119.749	117.643	0
33	1	3	21	120.013	4	Aircraft1_70%_50.jpg	0	0.75	120.013	123.749	121.202	0
33	1	3	22	124.011	4	rest.jpg	n/a	n/a	124.011	127.742	128.011	n/a
33	1	3	23	127.991	4	rest.jpg	n/a	n/a	127.991	131.722	131.991	n/a
33	1	3	24	131.967	4	rest.jpg	n/a	n/a	131.967	135.706	135.967	n/a
33	1	4	25	135.977	4	Aircraft1_10%_36.jpg	0	0.1	135.977	139.714	137.798	0
33	1	4	26	140.004	4	Aircraft1_10%_35.jpg	0	0.1	140.004	143.737	141.571	0
33	1	4	27	144.026	4	Aircraft2_10%_3.jpg	1	0.1	144.026	147.759	145.024	1
33	1	4	28	148.035	4	Aircraft1_10%_5.jpg	0	0.1	148.035	151.766	149.339	0
33	1	4	29	152.056	4	Aircraft1_10%_48.jpg	0	0.1	152.056	155.786	153.307	0
33	1	4	30	156.052	4	rest.jpg	n/a	n/a	156.052	159.788	160.052	n/a
33	1	4	31	160.024	4	rest.jpg	n/a	n/a	160.024	163.754	164.024	n/a
33	1	4	32	163.986	4	rest.jpg	n/a	n/a	163.986	167.724	167.986	n/a
33	1	5	33	168.004	4	Aircraft1_90%_3.jpg	0	0.9	168.004	171.743	169.758	0
33	1	5	34	172.026	4	Aircraft2_90%_28.jpg	1	0.9	172.026	175.761	173.159	1
33	1	5	35	176.022	4	Aircraft1_90%_24.jpg	0	0.9	176.022	179.759	177.781	0
33	1	5	36	180.042	4	Aircraft2_90%_39.jpg	1	0.9	180.042	183.776	181.304	1
33	1	5	37	184.062	4	Aircraft2_90%_8.jpg	1	0.9	184.062	187.796	185.295	1
33	1	5	38	188.063	4	rest.jpg	n/a	n/a	188.063	191.794	192.063	n/a
33	1	5	39	192.042	4	rest.jpg	n/a	n/a	192.042	195.775	196.042	n/a
33	1	5	40	196.006	4	rest.jpg	n/a	n/a	196.006	199.739	200.006	n/a
33	1	6	41	200.004	4	Aircraft2_70%_18.jpg	1	0.75	200.004	203.736	201.344	1
33	1	6	42	204.003	4	Aircraft1_70%_29.jpg	0	0.75	204.003	207.736	205.051	0
33	1	6	43	208.016	4	Aircraft2_70%_1.jpg	1	0.75	208.016	211.749	209.187	1
33	1	6	44	212.016	4	Aircraft1_70%_26.jpg	0	0.75	212.016	215.753	214.052	0
33	1	6	45	216.02	4	Aircraft2_70%_34.jpg	1	0.75	216.02	219.753	217.955	1
33	1	6	46	220.018	4	rest.jpg	n/a	n/a	220.018	223.751	224.018	n/a
33	1	6	47	224	4	rest.jpg	n/a	n/a	224	227.736	228	n/a
33	1	6	48	227.986	4	rest.jpg	n/a	n/a	227.986	231.723	231.986	n/a
33	1	7	49	232.005	4	Aircraft2_10%_17.jpg	1	0.1	232.005	235.738	234.006	1
33	1	7	50	236.025	4	Aircraft2_10%_11.jpg	1	0.1	236.025	239.763	236.767	1
33	1	7	51	240.032	4	Aircraft1_10%_20.jpg	0	0.1	240.032	243.765	240.966	0
33	1	7	52	244.034	4	Aircraft2_10%_47.jpg	1	0.1	244.034	247.77	244.996	1
33	1	7	53	248.056	4	Aircraft2_10%_45.jpg	1	0.1	248.056	251.788	249.154	1
33	1	7	54	252.057	4	rest.jpg	n/a	n/a	252.057	255.79	256.057	n/a
33	1	7	55	256.038	4	rest.jpg	n/a	n/a	256.038	259.775	260.038	n/a
33	1	7	56	260.024	4	rest.jpg	n/a	n/a	260.024	263.759	264.024	n/a
33	1	8	57	264.039	4	Aircraft1_90%_25.jpg	0	0.9	264.039	267.774	265.157	0
33	1	8	58	268.037	4	Aircraft2_90%_49.jpg	1	0.9	268.037	271.77	269.076	1
33	1	8	59	272.029	4	Aircraft2_90%_10.jpg	1	0.9	272.029	275.763	273.367	1
33	1	8	60	276.044	4	Aircraft2_90%_12.jpg	1	0.9	276.044	279.775	277.109	1
33	1	8	61	280.057	4	Aircraft2_90%_7.jpg	1	0.9	280.057	283.793	281.303	1
33	1	8	62	284.063	4	rest.jpg	n/a	n/a	284.063	287.795	288.063	n/a
33	1	8	63	288.044	4	rest.jpg	n/a	n/a	288.044	291.777	292.044	n/a
33	1	8	64	292.009	4	rest.jpg	n/a	n/a	292.009	295.741	296.009	n/a
33	1	9	65	296.023	4	Aircraft1_70%_32.jpg	0	0.75	296.023	299.756	297.227	0
33	1	9	66	300.043	4	Aircraft1_70%_49.jpg	0	0.75	300.043	303.774	301.169	0
33	1	9	67	304.061	4	Aircraft2_70%_22.jpg	1	0.75	304.061	307.795	305.025	1
33	1	9	68	308.066	4	Aircraft1_70%_34.jpg	0	0.75	308.066	311.796	309.068	0
33	1	9	69	312.069	4	Aircraft1_70%_14.jpg	0	0.75	312.069	315.806	313.26	0
33	1	9	70	316.076	4	rest.jpg	n/a	n/a	316.076	319.809	320.076	n/a
33	1	9	71	320.043	4	rest.jpg	n/a	n/a	320.043	323.779	324.043	n/a
33	1	9	72	324.013	4	rest.jpg	n/a	n/a	324.013	327.746	328.013	n/a
33	1	10	73	328.022	4	Aircraft1_10%_1.jpg	0	0.1	328.022	331.756	329.038	0
33	1	10	74	332.041	4	Aircraft1_10%_47.jpg	0	0.1	332.041	335.774	332.756	0
33	1	10	75	336.067	4	Aircraft1_10%_40.jpg	0	0.1	336.067	339.8	336.904	0
33	1	10	76	340.068	4	Aircraft1_10%_27.jpg	0	0.1	340.068	343.801	341.655	0
33	1	10	77	344.069	4	Aircraft2_10%_35.jpg	1	0.1	344.069	347.804	345.024	1
33	1	10	78	348.085	4	rest.jpg	n/a	n/a	348.085	351.816	352.085	n/a
33	1	10	79	352.047	4	rest.jpg	n/a	n/a	352.047	355.783	356.047	n/a
33	1	10	80	356.013	4	rest.jpg	n/a	n/a	356.013	359.748	360.013	n/a
33	1	11	81	360.028	4	Aircraft1_90%_32.jpg	0	0.9	360.028	363.759	361.247	0
33	1	11	82	364.039	4	Aircraft1_90%_49.jpg	0	0.9	364.039	367.778	365.423	0
33	1	11	83	368.059	4	Aircraft2_90%_22.jpg	1	0.9	368.059	371.79	369.041	1
33	1	11	84	372.075	4	Aircraft1_90%_34.jpg	0	0.9	372.075	375.812	373.02	0
33	1	11	85	376.076	4	Aircraft1_90%_14.jpg	0	0.9	376.076	379.806	376.886	0
33	1	11	86	380.072	4	rest.jpg	n/a	n/a	380.072	383.807	384.072	n/a
33	1	11	87	384.037	4	rest.jpg	n/a	n/a	384.037	387.774	388.037	n/a
33	1	11	88	388.021	4	rest.jpg	n/a	n/a	388.021	391.756	392.021	n/a
33	1	12	89	392.019	4	Aircraft2_70%_24.jpg	1	0.75	392.019	395.757	393.307	1
33	1	12	90	396.02	4	Aircraft2_70%_2.jpg	1	0.75	396.02	399.753	397.218	1
33	1	12	91	400.038	4	Aircraft2_70%_43.jpg	1	0.75	400.038	403.773	401.154	1
33	1	12	92	404.06	4	Aircraft2_70%_46.jpg	1	0.75	404.06	407.79	405.653	1
33	1	12	93	408.058	4	Aircraft1_70%_42.jpg	0	0.75	408.058	411.795	409.095	0
33	1	12	94	412.061	4	rest.jpg	n/a	n/a	412.061	415.791	416.061	n/a
33	1	12	95	416.04	4	rest.jpg	n/a	n/a	416.04	419.78	420.04	n/a
33	1	12	96	420.011	4	rest.jpg	n/a	n/a	420.011	423.745	424.011	n/a
33	1	13	97	424.034	4	Aircraft2_10%_30.jpg	1	0.1	424.034	427.765	425.378	1
33	1	13	98	428.05	4	Aircraft2_10%_27.jpg	1	0.1	428.05	431.786	428.881	1
33	1	13	99	432.056	4	Aircraft2_10%_50.jpg	1	0.1	432.056	435.791	433.006	1
33	1	13	100	436.06	4	Aircraft2_10%_29.jpg	1	0.1	436.06	439.796	436.771	1
33	1	13	101	440.084	4	Aircraft1_10%_6.jpg	0	0.1	440.084	443.815	440.912	0
33	1	13	102	444.103	4	rest.jpg	n/a	n/a	444.103	447.835	448.103	n/a
33	1	13	103	448.07	4	rest.jpg	n/a	n/a	448.07	451.803	452.07	n/a
33	1	13	104	452.055	4	rest.jpg	n/a	n/a	452.055	455.785	456.055	n/a
33	1	14	105	456.066	4	Aircraft2_90%_18.jpg	1	0.9	456.066	459.798	457.41	1
33	1	14	106	460.082	4	Aircraft1_90%_29.jpg	0	0.9	460.082	463.812	461.5	0
33	1	14	107	464.088	4	Aircraft2_90%_1.jpg	1	0.9	464.088	467.824	465.335	1
33	1	14	108	468.108	4	Aircraft1_90%_26.jpg	0	0.9	468.108	471.838	469.205	0
33	1	14	109	472.122	4	Aircraft2_90%_34.jpg	1	0.9	472.122	475.858	473.54	1
33	1	14	110	476.124	4	rest.jpg	n/a	n/a	476.124	479.859	480.124	n/a
33	1	14	111	480.092	4	rest.jpg	n/a	n/a	480.092	483.828	484.092	n/a
33	1	14	112	484.079	4	rest.jpg	n/a	n/a	484.079	487.809	488.079	n/a
33	1	15	113	488.092	4	Aircraft1_70%_17.jpg	0	0.75	488.092	491.822	489.573	0
33	1	15	114	492.111	4	Aircraft2_70%_42.jpg	1	0.75	492.111	495.844	493.48	1
33	1	15	115	496.112	4	Aircraft2_70%_44.jpg	1	0.75	496.112	499.847	496.878	1
33	1	15	116	500.116	4	Aircraft1_70%_10.jpg	0	0.75	500.116	503.847	501.205	0
33	1	15	117	504.115	4	Aircraft2_70%_25.jpg	1	0.75	504.115	507.845	505.244	1
33	1	15	118	508.112	4	rest.jpg	n/a	n/a	508.112	511.848	512.112	n/a
33	1	15	119	512.1	4	rest.jpg	n/a	n/a	512.1	515.835	516.1	n/a
33	1	15	120	516.069	4	rest.jpg	n/a	n/a	516.069	519.801	520.069	n/a
33	1	16	121	520.069	4	Aircraft1_10%_38.jpg	0	0.1	520.069	523.804	521.361	0
33	1	16	122	524.073	4	Aircraft2_10%_21.jpg	1	0.1	524.073	527.803	524.989	1
33	1	16	123	528.089	4	Aircraft1_10%_16.jpg	0	0.1	528.089	531.819	528.97	0
33	1	16	124	532.091	4	Aircraft1_10%_46.jpg	0	0.1	532.091	535.824	532.793	0
33	1	16	125	536.104	4	Aircraft2_10%_40.jpg	1	0.1	536.104	539.833	536.891	1
33	1	16	126	540.112	4	rest.jpg	n/a	n/a	540.112	543.844	544.112	n/a
33	1	16	127	544.077	4	rest.jpg	n/a	n/a	544.077	547.807	548.077	n/a
33	1	16	128	548.054	4	rest.jpg	n/a	n/a	548.054	551.784	552.054	n/a
33	1	17	129	552.065	4	Aircraft2_90%_4.jpg	1	0.9	552.065	555.795	553.293	1
33	1	17	130	556.079	4	Aircraft1_90%_43.jpg	0	0.9	556.079	559.809	556.931	0
33	1	17	131	560.071	4	Aircraft1_90%_9.jpg	0	0.9	560.071	563.801	561.024	0
33	1	17	132	564.063	4	Aircraft1_90%_11.jpg	0	0.9	564.063	567.798	565.214	0
33	1	17	133	568.08	4	Aircraft1_90%_50.jpg	0	0.9	568.08	571.81	569.036	0
33	1	17	134	572.076	4	rest.jpg	n/a	n/a	572.076	575.812	576.076	n/a
33	1	17	135	576.044	4	rest.jpg	n/a	n/a	576.044	579.776	580.044	n/a
33	1	17	136	580.006	4	rest.jpg	n/a	n/a	580.006	583.737	584.006	n/a
33	1	18	137	584.001	4	Aircraft1_70%_12.jpg	0	0.75	584.001	587.737	585.369	0
33	1	18	138	588.018	4	Aircraft2_70%_32.jpg	1	0.75	588.018	591.749	589.338	1
33	1	18	139	592.028	4	Aircraft2_70%_48.jpg	1	0.75	592.028	595.761	592.972	1
33	1	18	140	596.057	4	Aircraft1_70%_19.jpg	0	0.75	596.057	599.79	597.184	0
33	1	18	141	600.076	4	Aircraft1_70%_33.jpg	0	0.75	600.076	603.806	601.344	0
33	1	18	142	604.093	4	rest.jpg	n/a	n/a	604.093	607.825	608.093	n/a
33	1	18	143	608.075	4	rest.jpg	n/a	n/a	608.075	611.812	612.075	n/a
33	1	18	144	612.045	4	rest.jpg	n/a	n/a	612.045	615.776	616.045	n/a
33	1	19	145	616.043	4	Aircraft2_10%_23.jpg	1	0.1	616.043	619.773	617.038	1
33	1	19	146	620.057	4	Aircraft1_10%_28.jpg	0	0.1	620.057	623.794	620.779	0
33	1	19	147	624.077	4	Aircraft2_10%_13.jpg	1	0.1	624.077	627.812	624.89	1
33	1	19	148	628.097	4	Aircraft1_10%_45.jpg	0	0.1	628.097	631.83	629.211	0
33	1	19	149	632.103	4	Aircraft1_10%_37.jpg	0	0.1	632.103	635.84	633.081	0
33	1	19	150	636.106	4	rest.jpg	n/a	n/a	636.106	639.836	640.106	n/a
33	1	19	151	640.088	4	rest.jpg	n/a	n/a	640.088	643.82	644.088	n/a
33	1	19	152	644.073	4	rest.jpg	n/a	n/a	644.073	647.809	648.073	n/a
33	1	20	153	648.072	4	Aircraft2_90%_33.jpg	1	0.9	648.072	651.802	649.447	1
33	1	20	154	652.065	4	Aircraft2_90%_38.jpg	1	0.9	652.065	655.799	653.443	1
33	1	20	155	656.063	4	Aircraft1_90%_30.jpg	0	0.9	656.063	659.798	657.507	0
33	1	20	156	660.061	4	Aircraft1_90%_41.jpg	0	0.9	660.061	663.791	661.376	0
33	1	20	157	664.073	4	Aircraft1_90%_18.jpg	0	0.9	664.073	667.805	665.451	0
33	1	20	158	668.071	4	rest.jpg	n/a	n/a	668.071	671.806	672.071	n/a
33	1	20	159	672.057	4	rest.jpg	n/a	n/a	672.057	675.789	676.057	n/a
33	1	20	160	676.021	4	rest.jpg	n/a	n/a	676.021	679.755	680.021	n/a
33	1	21	161	680.022	4	Aircraft2_70%_9.jpg	1	0.75	680.022	683.754	681.191	1
33	1	21	162	684.017	4	Aircraft2_70%_6.jpg	1	0.75	684.017	687.754	685.353	1
33	1	21	163	688.021	4	Aircraft1_70%_23.jpg	0	0.75	688.021	691.755	689.226	0
33	1	21	164	692.022	4	Aircraft1_70%_21.jpg	0	0.75	692.022	695.757	693.426	0
33	1	21	165	696.026	4	Aircraft2_70%_36.jpg	1	0.75	696.026	699.757	697.115	1
33	1	21	166	700.022	4	rest.jpg	n/a	n/a	700.022	703.755	704.022	n/a
33	1	21	167	703.987	4	rest.jpg	n/a	n/a	703.987	707.717	707.987	n/a
33	1	21	168	707.949	4	rest.jpg	n/a	n/a	707.949	711.682	711.949	n/a
33	1	22	169	711.949	4	Aircraft2_10%_41.jpg	1	0.1	711.949	715.686	712.991	1
33	1	22	170	715.958	4	Aircraft1_10%_22.jpg	0	0.1	715.958	719.696	716.858	0
33	1	22	171	719.965	4	Aircraft1_10%_44.jpg	0	0.1	719.965	723.702	720.85	0
33	1	22	172	723.971	4	Aircraft1_10%_1.jpg	0	0.1	723.971	727.71	724.722	0
33	1	22	173	727.975	4	Aircraft2_10%_37.jpg	1	0.1	727.975	731.705	728.866	1
33	1	22	174	731.968	4	rest.jpg	n/a	n/a	731.968	735.706	735.968	n/a
33	1	22	175	735.954	4	rest.jpg	n/a	n/a	735.954	739.688	739.954	n/a
33	1	22	176	739.918	4	rest.jpg	n/a	n/a	739.918	743.648	743.918	n/a
33	1	23	177	743.929	4	Aircraft2_90%_31.jpg	1	0.9	743.929	747.659	745.238	1
33	1	23	178	747.92	4	Aircraft1_90%_4.jpg	0	0.9	747.92	751.656	748.95	0
33	1	23	179	751.934	4	Aircraft2_90%_20.jpg	1	0.9	751.934	755.67	752.855	1
33	1	23	180	755.933	4	Aircraft1_90%_7.jpg	0	0.9	755.933	759.667	756.934	0
33	1	23	181	759.942	4	Aircraft1_90%_8.jpg	0	0.9	759.942	763.68	760.915	0
33	1	23	182	763.961	4	rest.jpg	n/a	n/a	763.961	767.694	767.961	n/a
33	1	23	183	767.926	4	rest.jpg	n/a	n/a	767.926	771.661	771.926	n/a
33	1	23	184	771.904	4	rest.jpg	n/a	n/a	771.904	775.633	775.904	n/a
33	1	24	185	775.918	4	Aircraft2_70%_14.jpg	1	0.75	775.918	779.65	777.372	1
33	1	24	186	779.937	4	Aircraft2_70%_5.jpg	1	0.75	779.937	783.675	781.599	1
33	1	24	187	783.947	4	Aircraft2_70%_15.jpg	1	0.75	783.947	787.678	784.819	1
33	1	24	188	787.943	4	Aircraft2_70%_19.jpg	1	0.75	787.943	791.677	788.975	1
33	1	24	189	791.963	4	Aircraft1_70%_31.jpg	0	0.75	791.963	795.697	793.492	0
33	1	24	190	795.962	4	rest.jpg	n/a	n/a	795.962	799.692	799.962	n/a
33	1	24	191	799.942	4	rest.jpg	n/a	n/a	799.942	803.675	803.942	n/a
33	1	24	192	803.907	4	rest.jpg	n/a	n/a	803.907	807.637	807.907	n/a
33	1	25	193	807.918	4	Aircraft2_10%_9.jpg	1	0.1	807.918	811.653	808.793	1
33	1	25	194	811.931	4	Aircraft2_10%_6.jpg	1	0.1	811.931	815.664	812.666	1
33	1	25	195	815.95	4	Aircraft1_10%_23.jpg	0	0.1	815.95	819.682	816.895	0
33	1	25	196	819.971	4	Aircraft1_10%_21.jpg	0	0.1	819.971	823.702	820.913	0
33	1	25	197	823.966	4	Aircraft2_10%_36.jpg	1	0.1	823.966	827.698	825.027	1
33	1	25	198	827.979	4	rest.jpg	n/a	n/a	827.979	831.712	831.979	n/a
33	1	25	199	831.944	4	rest.jpg	n/a	n/a	831.944	835.682	835.944	n/a
33	1	25	200	835.928	4	rest.jpg	n/a	n/a	835.928	839.661	839.928	n/a
33	1	26	201	839.923	4	Aircraft2_90%_24.jpg	1	0.9	839.923	843.656	841.512	1
33	1	26	202	843.936	4	Aircraft2_90%_2.jpg	1	0.9	843.936	847.668	844.891	1
33	1	26	203	847.931	4	Aircraft2_90%_43.jpg	1	0.9	847.931	851.668	848.925	1
33	1	26	204	851.928	4	Aircraft2_90%_46.jpg	1	0.9	851.928	855.662	853.082	1
33	1	26	205	855.924	4	Aircraft1_90%_42.jpg	0	0.9	855.924	859.662	857.046	0
33	1	26	206	859.946	4	rest.jpg	n/a	n/a	859.946	863.68	863.946	n/a
33	1	26	207	863.931	4	rest.jpg	n/a	n/a	863.931	867.667	867.931	n/a
33	1	26	208	867.899	4	rest.jpg	n/a	n/a	867.899	871.635	871.899	n/a
33	1	27	209	871.903	4	Aircraft1_70%_3.jpg	0	0.75	871.903	875.638	873.059	0
33	1	27	210	875.906	4	Aircraft2_70%_28.jpg	1	0.75	875.906	879.638	876.776	1
33	1	27	211	879.923	4	Aircraft1_70%_24.jpg	0	0.75	879.923	883.661	881.193	0
33	1	27	212	883.945	4	Aircraft2_70%_39.jpg	1	0.75	883.945	887.675	884.806	1
33	1	27	213	887.954	4	Aircraft2_70%_8.jpg	1	0.75	887.954	891.686	888.911	1
33	1	27	214	891.966	4	rest.jpg	n/a	n/a	891.966	895.701	895.966	n/a
33	1	27	215	895.933	4	rest.jpg	n/a	n/a	895.933	899.663	899.933	n/a
33	1	27	216	899.911	4	rest.jpg	n/a	n/a	899.911	903.648	903.911	n/a
33	1	28	217	903.914	4	Aircraft1_10%_12.jpg	0	0.1	903.914	907.646	904.931	0
33	1	28	218	907.931	4	Aircraft2_10%_32.jpg	1	0.1	907.931	911.664	908.551	1
33	1	28	219	911.952	4	Aircraft2_10%_48.jpg	1	0.1	911.952	915.688	912.849	1
33	1	28	220	915.953	4	Aircraft1_10%_19.jpg	0	0.1	915.953	919.689	916.863	0
33	1	28	221	919.973	4	Aircraft1_10%_33.jpg	0	0.1	919.973	923.706	920.928	0
33	1	28	222	923.99	4	rest.jpg	n/a	n/a	923.99	927.725	927.99	n/a
33	1	28	223	927.967	4	rest.jpg	n/a	n/a	927.967	931.7	931.967	n/a
33	1	28	224	931.93	4	rest.jpg	n/a	n/a	931.93	935.662	935.93	n/a
33	1	29	225	935.941	4	Aircraft1_90%_17.jpg	0	0.9	935.941	939.672	937.394	0
33	1	29	226	939.953	4	Aircraft2_90%_42.jpg	1	0.9	939.953	943.684	941.191	1
33	1	29	227	943.966	4	Aircraft2_90%_44.jpg	1	0.9	943.966	947.702	944.854	1
33	1	29	228	947.979	4	Aircraft1_90%_10.jpg	0	0.9	947.979	951.712	949.021	0
33	1	29	229	951.973	4	Aircraft2_90%_25.jpg	1	0.9	951.973	955.704	953.007	1
33	1	29	230	955.985	4	rest.jpg	n/a	n/a	955.985	959.715	959.985	n/a
33	1	29	231	959.964	4	rest.jpg	n/a	n/a	959.964	963.698	963.964	n/a
33	1	29	232	963.929	4	rest.jpg	n/a	n/a	963.929	967.665	967.929	n/a
33	1	30	233	967.945	4	Aircraft1_70%_25.jpg	0	0.75	967.945	971.677	969.174	0
33	1	30	234	971.942	4	Aircraft2_70%_49.jpg	1	0.75	971.942	975.681	972.909	1
33	1	30	235	975.96	4	Aircraft2_70%_10.jpg	1	0.75	975.96	979.696	976.891	1
33	1	30	236	979.964	4	Aircraft2_70%_12.jpg	1	0.75	979.964	983.703	981.275	1
33	1	30	237	983.988	4	Aircraft2_70%_7.jpg	1	0.75	983.988	987.721	985.236	1
33	1	30	238	987.986	4	rest.jpg	n/a	n/a	987.986	991.722	991.986	n/a
33	1	30	239	991.971	4	rest.jpg	n/a	n/a	991.971	995.708	995.971	n/a
33	1	30	240	995.959	4	rest.jpg	n/a	n/a	995.959	999.695	999.959	n/a
