sub	run	block	trail	oneset	duration	stim_file	stim_lable	level of occlusion	stim_started	stim_stopped	key_time	key_fix
32	2	1	1	39.98	4	Aircraft1_10%_17.jpg	0	0.1	39.98	43.713	40.678	0
32	2	1	2	44.002	4	Aircraft2_10%_42.jpg	1	0.1	44.002	47.735	44.729	1
32	2	1	3	47.999	4	Aircraft2_10%_44.jpg	1	0.1	47.999	51.734	48.669	1
32	2	1	4	52.002	4	Aircraft1_10%_10.jpg	0	0.1	52.002	55.737	52.587	0
32	2	1	5	56.001	4	Aircraft2_10%_25.jpg	1	0.1	56.001	59.731	56.782	1
32	2	1	6	59.995	4	rest.jpg	n/a	n/a	59.995	63.73	63.995	n/a
32	2	1	7	63.976	4	rest.jpg	n/a	n/a	63.976	67.706	67.976	n/a
32	2	1	8	67.955	4	rest.jpg	n/a	n/a	67.955	71.685	71.955	n/a
32	2	2	9	71.958	4	Aircraft1_90%_12.jpg	0	0.9	71.958	75.688	74.446	0
32	2	2	10	75.969	4	Aircraft2_90%_32.jpg	1	0.9	75.969	79.701	76.833	1
32	2	2	11	79.976	4	Aircraft2_90%_48.jpg	1	0.9	79.976	83.709	80.974	1
32	2	2	12	83.989	4	Aircraft1_90%_19.jpg	0	0.9	83.989	87.719	86.22	0
32	2	2	13	87.998	4	Aircraft1_90%_33.jpg	0	0.9	87.998	91.728	88.953	0
32	2	2	14	91.991	4	rest.jpg	n/a	n/a	91.991	95.73	95.991	n/a
32	2	2	15	95.979	4	rest.jpg	n/a	n/a	95.979	99.71	99.979	n/a
32	2	2	16	99.953	4	rest.jpg	n/a	n/a	99.953	103.689	103.953	n/a
32	2	3	17	103.967	4	Aircraft2_70%_33.jpg	1	0.75	103.967	107.7	104.965	1
32	2	3	18	107.986	4	Aircraft2_70%_38.jpg	1	0.75	107.986	111.717	108.856	1
32	2	3	19	111.984	4	Aircraft1_70%_30.jpg	0	0.75	111.984	115.717	112.977	0
32	2	3	20	115.984	4	Aircraft1_70%_41.jpg	0	0.75	115.984	119.719	117.342	0
32	2	3	21	119.998	4	Aircraft1_70%_18.jpg	0	0.75	119.998	123.733	121.169	0
32	2	3	22	123.997	4	rest.jpg	n/a	n/a	123.997	127.733	127.997	n/a
32	2	3	23	127.983	4	rest.jpg	n/a	n/a	127.983	131.715	131.983	n/a
32	2	3	24	131.949	4	rest.jpg	n/a	n/a	131.949	135.681	135.949	n/a
32	2	4	25	135.963	4	Aircraft2_10%_24.jpg	1	0.1	135.963	139.699	137.427	1
32	2	4	26	139.988	4	Aircraft2_10%_2.jpg	1	0.1	139.988	143.727	140.62	1
32	2	4	27	143.993	4	Aircraft2_10%_43.jpg	1	0.1	143.993	147.728	144.801	1
32	2	4	28	148.015	4	Aircraft2_10%_46.jpg	1	0.1	148.015	151.75	148.717	1
32	2	4	29	152.019	4	Aircraft1_10%_42.jpg	0	0.1	152.019	155.749	152.8	0
32	2	4	30	156.026	4	rest.jpg	n/a	n/a	156.026	159.757	160.026	n/a
32	2	4	31	160.005	4	rest.jpg	n/a	n/a	160.005	163.738	164.005	n/a
32	2	4	32	163.97	4	rest.jpg	n/a	n/a	163.97	167.703	167.97	n/a
32	2	5	33	167.964	4	Aircraft2_90%_9.jpg	1	0.9	167.964	171.699	169.356	1
32	2	5	34	171.975	4	Aircraft2_90%_6.jpg	1	0.9	171.975	175.713	175.223	1
32	2	5	35	175.988	4	Aircraft1_90%_23.jpg	0	0.9	175.988	179.726	176.938	0
32	2	5	36	179.985	4	Aircraft1_90%_21.jpg	0	0.9	179.985	183.716	182.086	0
32	2	5	37	183.978	4	Aircraft2_90%_36.jpg	1	0.9	183.978	187.709	185.594	1
32	2	5	38	187.976	4	rest.jpg	n/a	n/a	187.976	191.714	191.976	n/a
32	2	5	39	191.946	4	rest.jpg	n/a	n/a	191.946	195.679	195.946	n/a
32	2	5	40	195.928	4	rest.jpg	n/a	n/a	195.928	199.657	199.928	n/a
32	2	6	41	199.939	4	Aircraft2_70%_31.jpg	1	0.75	199.939	203.675	201.552	1
32	2	6	42	203.961	4	Aircraft1_70%_4.jpg	0	0.75	203.961	207.692	204.87	0
32	2	6	43	207.964	4	Aircraft2_70%_20.jpg	1	0.75	207.964	211.696	211.062	1
32	2	6	44	211.976	4	Aircraft1_70%_7.jpg	0	0.75	211.976	215.71	213.294	0
32	2	6	45	215.985	4	Aircraft1_70%_8.jpg	0	0.75	215.985	219.716	216.973	0
32	2	6	46	220.006	4	rest.jpg	n/a	n/a	220.006	223.744	224.006	n/a
32	2	6	47	223.978	4	rest.jpg	n/a	n/a	223.978	227.715	227.978	n/a
32	2	6	48	227.959	4	rest.jpg	n/a	n/a	227.959	231.69	231.959	n/a
32	2	7	49	231.973	4	Aircraft2_10%_31.jpg	1	0.1	231.973	235.705	232.937	1
32	2	7	50	235.976	4	Aircraft1_10%_4.jpg	0	0.1	235.976	239.707	236.743	0
32	2	7	51	240.013	4	Aircraft2_10%_20.jpg	1	0.1	240.013	243.751	240.74	1
32	2	7	52	244.056	4	Aircraft1_10%_7.jpg	0	0.1	244.056	247.792	244.765	0
32	2	7	53	248.098	4	Aircraft1_10%_8.jpg	0	0.1	248.098	251.833	248.665	0
32	2	7	54	252.112	4	rest.jpg	n/a	n/a	252.112	255.846	256.112	n/a
32	2	7	55	256.081	4	rest.jpg	n/a	n/a	256.081	259.81	260.081	n/a
32	2	7	56	260.056	4	rest.jpg	n/a	n/a	260.056	263.785	264.056	n/a
32	2	8	57	264.074	4	Aircraft2_90%_41.jpg	1	0.9	264.074	267.803	265.329	1
32	2	8	58	268.124	4	Aircraft1_90%_22.jpg	0	0.9	268.124	271.853	269.95	0
32	2	8	59	272.123	4	Aircraft1_90%_44.jpg	0	0.9	272.123	275.856	274.413	0
32	2	8	60	276.168	4	Aircraft1_90%_1.jpg	0	0.9	276.168	279.902	277.192	0
32	2	8	61	280.166	4	Aircraft2_90%_37.jpg	1	0.9	280.166	283.903	281.61	1
32	2	8	62	284.167	4	rest.jpg	n/a	n/a	284.167	287.899	288.167	n/a
32	2	8	63	288.131	4	rest.jpg	n/a	n/a	288.131	291.859	292.131	n/a
32	2	8	64	292.09	4	rest.jpg	n/a	n/a	292.09	295.82	296.09	n/a
32	2	9	65	296.088	4	Aircraft2_70%_41.jpg	1	0.75	296.088	299.823	297.917	1
32	2	9	66	300.142	4	Aircraft1_70%_22.jpg	0	0.75	300.142	303.878	301.434	0
32	2	9	67	304.151	4	Aircraft1_70%_44.jpg	0	0.75	304.151	307.882	306.663	0
32	2	9	68	308.201	4	Aircraft1_70%_1.jpg	0	0.75	308.201	311.935	309.549	0
32	2	9	69	312.239	4	Aircraft2_70%_37.jpg	1	0.75	312.239	315.975	313.56	1
32	2	9	70	316.244	4	rest.jpg	n/a	n/a	316.244	319.978	320.244	n/a
32	2	9	71	320.21	4	rest.jpg	n/a	n/a	320.21	323.942	324.21	n/a
32	2	9	72	324.191	4	rest.jpg	n/a	n/a	324.191	327.92	328.191	n/a
32	2	10	73	328.218	4	Aircraft2_10%_33.jpg	1	0.1	328.218	331.953	329.169	1
32	2	10	74	332.254	4	Aircraft2_10%_38.jpg	1	0.1	332.254	335.988	333.297	1
32	2	10	75	336.295	4	Aircraft1_10%_30.jpg	0	0.1	336.295	340.025	337.108	0
32	2	10	76	340.333	4	Aircraft1_10%_41.jpg	0	0.1	340.333	344.069	340.923	0
32	2	10	77	344.38	4	Aircraft1_10%_18.jpg	0	0.1	344.38	348.111	345.047	0
32	2	10	78	348.396	4	rest.jpg	n/a	n/a	348.396	352.131	352.396	n/a
32	2	10	79	352.363	4	rest.jpg	n/a	n/a	352.363	356.091	356.363	n/a
32	2	10	80	356.339	4	rest.jpg	n/a	n/a	356.339	360.075	360.339	n/a
32	2	11	81	360.377	4	Aircraft2_90%_23.jpg	1	0.9	360.377	364.106	361.339	1
32	2	11	82	364.381	4	Aircraft1_90%_28.jpg	0	0.9	364.381	368.115	365.478	0
32	2	11	83	368.377	4	Aircraft2_90%_13.jpg	1	0.9	368.377	372.112	369.374	1
32	2	11	84	372.394	4	Aircraft1_90%_45.jpg	0	0.9	372.394	376.13	373.823	0
32	2	11	85	376.408	4	Aircraft1_90%_37.jpg	0	0.9	376.408	380.142	377.403	0
32	2	11	86	380.423	4	rest.jpg	n/a	n/a	380.423	384.154	384.423	n/a
32	2	11	87	384.4	4	rest.jpg	n/a	n/a	384.4	388.137	388.4	n/a
32	2	11	88	388.369	4	rest.jpg	n/a	n/a	388.369	392.103	392.369	n/a
32	2	12	89	392.419	4	Aircraft1_70%_2.jpg	0	0.75	392.419	396.153	393.657	0
32	2	12	90	396.423	4	Aircraft1_70%_39.jpg	0	0.75	396.423	400.152	398.355	0
32	2	12	91	400.42	4	Aircraft2_70%_26.jpg	1	0.75	400.42	404.156	401.911	1
32	2	12	92	404.437	4	Aircraft1_70%_15.jpg	0	0.75	404.437	408.171	405.263	0
32	2	12	93	408.504	4	Aircraft2_70%_16.jpg	1	0.75	408.504	412.235	409.399	1
32	2	12	94	412.498	4	rest.jpg	n/a	n/a	412.498	416.234	416.498	n/a
32	2	12	95	416.483	4	rest.jpg	n/a	n/a	416.483	420.212	420.483	n/a
32	2	12	96	420.459	4	rest.jpg	n/a	n/a	420.459	424.193	424.459	n/a
32	2	13	97	424.499	4	Aircraft2_10%_4.jpg	1	0.1	424.499	428.227	426.073	1
32	2	13	98	428.504	4	Aircraft1_10%_43.jpg	0	0.1	428.504	432.235	429.207	0
32	2	13	99	432.524	4	Aircraft1_10%_9.jpg	0	0.1	432.524	436.259	433.396	0
32	2	13	100	436.536	4	Aircraft1_10%_11.jpg	0	0.1	436.536	440.271	437.113	0
32	2	13	101	440.592	4	Aircraft1_10%_50.jpg	0	0.1	440.592	444.328	441.339	0
32	2	13	102	444.613	4	rest.jpg	n/a	n/a	444.613	448.342	448.613	n/a
32	2	13	103	448.589	4	rest.jpg	n/a	n/a	448.589	452.318	452.589	n/a
32	2	13	104	452.55	4	rest.jpg	n/a	n/a	452.55	456.279	456.55	n/a
32	2	14	105	456.564	4	Aircraft1_90%_38.jpg	0	0.9	456.564	460.299	459.71	0
32	2	14	106	460.581	4	Aircraft2_90%_21.jpg	1	0.9	460.581	464.31	462.435	1
32	2	14	107	464.599	4	Aircraft1_90%_16.jpg	0	0.9	464.599	468.33	468.599	0
32	2	14	108	468.699	4	Aircraft1_90%_46.jpg	0	0.9	468.699	472.431	470.853	0
32	2	14	109	472.751	4	Aircraft2_90%_40.jpg	1	0.9	472.751	476.486	473.955	1
32	2	14	110	476.757	4	rest.jpg	n/a	n/a	476.757	480.488	480.757	n/a
32	2	14	111	480.731	4	rest.jpg	n/a	n/a	480.731	484.465	484.731	n/a
32	2	14	112	484.714	4	rest.jpg	n/a	n/a	484.714	488.445	488.714	n/a
32	2	15	113	488.71	4	Aircraft1_70%_36.jpg	0	0.75	488.71	492.444	489.736	0
32	2	15	114	492.754	4	Aircraft1_70%_35.jpg	0	0.75	492.754	496.483	493.812	0
32	2	15	115	496.751	4	Aircraft2_70%_3.jpg	1	0.75	496.751	500.481	497.943	1
32	2	15	116	500.756	4	Aircraft1_70%_5.jpg	0	0.75	500.756	504.485	502.532	0
32	2	15	117	504.791	4	Aircraft1_70%_48.jpg	0	0.75	504.791	508.525	506.531	0
32	2	15	118	508.811	4	rest.jpg	n/a	n/a	508.811	512.543	512.811	n/a
32	2	15	119	512.793	4	rest.jpg	n/a	n/a	512.793	516.522	516.793	n/a
32	2	15	120	516.759	4	rest.jpg	n/a	n/a	516.759	520.488	520.759	n/a
32	2	16	121	520.771	4	Aircraft2_10%_18.jpg	1	0.1	520.771	524.502	521.659	1
32	2	16	122	524.807	4	Aircraft1_10%_29.jpg	0	0.1	524.807	528.541	525.514	0
32	2	16	123	528.825	4	Aircraft2_10%_1.jpg	1	0.1	528.825	532.555	529.649	1
32	2	16	124	532.848	4	Aircraft1_10%_26.jpg	0	0.1	532.848	536.581	533.544	0
32	2	16	125	536.92	4	Aircraft2_10%_34.jpg	1	0.1	536.92	540.657	537.711	1
32	2	16	126	540.935	4	rest.jpg	n/a	n/a	540.935	544.664	544.935	n/a
32	2	16	127	544.911	4	rest.jpg	n/a	n/a	544.911	548.642	548.911	n/a
32	2	16	128	548.886	4	rest.jpg	n/a	n/a	548.886	552.621	552.886	n/a
32	2	17	129	552.904	4	Aircraft2_90%_30.jpg	1	0.9	552.904	556.639	555.603	1
32	2	17	130	556.9	4	Aircraft2_90%_27.jpg	1	0.9	556.9	560.635	559.762	1
32	2	17	131	560.904	4	Aircraft2_90%_50.jpg	1	0.9	560.904	564.638	563.164	1
32	2	17	132	564.94	4	Aircraft2_90%_29.jpg	1	0.9	564.94	568.671	566.043	1
32	2	17	133	568.993	4	Aircraft1_90%_6.jpg	0	0.9	568.993	572.728	570.034	0
32	2	17	134	572.997	4	rest.jpg	n/a	n/a	572.997	576.732	576.997	n/a
32	2	17	135	576.969	4	rest.jpg	n/a	n/a	576.969	580.704	580.969	n/a
32	2	17	136	580.952	4	rest.jpg	n/a	n/a	580.952	584.683	584.952	n/a
32	2	18	137	584.974	4	Aircraft2_70%_17.jpg	1	0.75	584.974	588.703	586.186	1
32	2	18	138	589.008	4	Aircraft2_70%_11.jpg	1	0.75	589.008	592.745	589.889	1
32	2	18	139	593.036	4	Aircraft1_70%_20.jpg	0	0.75	593.036	596.767	594.305	0
32	2	18	140	597.061	4	Aircraft2_70%_47.jpg	1	0.75	597.061	600.796	598.027	1
32	2	18	141	601.095	4	Aircraft2_70%_45.jpg	1	0.75	601.095	604.824	601.884	1
32	2	18	142	605.088	4	rest.jpg	n/a	n/a	605.088	608.822	609.088	n/a
32	2	18	143	609.065	4	rest.jpg	n/a	n/a	609.065	612.801	613.065	n/a
32	2	18	144	613.05	4	rest.jpg	n/a	n/a	613.05	616.784	617.05	n/a
32	2	19	145	617.085	4	Aircraft1_10%_32.jpg	0	0.1	617.085	620.821	618.026	0
32	2	19	146	621.143	4	Aircraft1_10%_49.jpg	0	0.1	621.143	624.879	621.857	0
32	2	19	147	625.201	4	Aircraft2_10%_22.jpg	1	0.1	625.201	628.937	625.9	1
32	2	19	148	629.211	4	Aircraft1_10%_34.jpg	0	0.1	629.211	632.942	629.908	0
32	2	19	149	633.257	4	Aircraft1_10%_14.jpg	0	0.1	633.257	636.993	633.945	0
32	2	19	150	637.262	4	rest.jpg	n/a	n/a	637.262	640.993	641.262	n/a
32	2	19	151	641.242	4	rest.jpg	n/a	n/a	641.242	644.971	645.242	n/a
32	2	19	152	645.214	4	rest.jpg	n/a	n/a	645.214	648.95	649.214	n/a
32	2	20	153	649.23	4	Aircraft1_90%_1.jpg	0	0.9	649.23	652.964	650.45	0
32	2	20	154	653.227	4	Aircraft1_90%_47.jpg	0	0.9	653.227	656.956	654.472	0
32	2	20	155	657.235	4	Aircraft1_90%_40.jpg	0	0.9	657.235	660.967	658.495	0
32	2	20	156	661.288	4	Aircraft1_90%_27.jpg	0	0.9	661.288	665.017	663.076	0
32	2	20	157	665.324	4	Aircraft2_90%_35.jpg	1	0.9	665.324	669.053	666.252	1
32	2	20	158	669.342	4	rest.jpg	n/a	n/a	669.342	673.077	673.342	n/a
32	2	20	159	673.323	4	rest.jpg	n/a	n/a	673.323	677.054	677.323	n/a
32	2	20	160	677.288	4	rest.jpg	n/a	n/a	677.288	681.022	681.288	n/a
32	2	21	161	681.296	4	Aircraft2_70%_23.jpg	1	0.75	681.296	685.027	682.303	1
32	2	21	162	685.355	4	Aircraft1_70%_28.jpg	0	0.75	685.355	689.086	687.011	0
32	2	21	163	689.39	4	Aircraft2_70%_13.jpg	1	0.75	689.39	693.125	690.228	1
32	2	21	164	693.433	4	Aircraft1_70%_45.jpg	0	0.75	693.433	697.162	694.358	0
32	2	21	165	697.439	4	Aircraft1_70%_37.jpg	0	0.75	697.439	701.168	698.728	0
32	2	21	166	701.439	4	rest.jpg	n/a	n/a	701.439	705.168	705.439	n/a
32	2	21	167	705.417	4	rest.jpg	n/a	n/a	705.417	709.148	709.417	n/a
32	2	21	168	709.382	4	rest.jpg	n/a	n/a	709.382	713.118	713.382	n/a
32	2	22	169	713.442	4	Aircraft1_10%_25.jpg	0	0.1	713.442	717.174	714.205	0
32	2	22	170	717.466	4	Aircraft2_10%_49.jpg	1	0.1	717.466	721.2	718.19	1
32	2	22	171	721.493	4	Aircraft2_10%_10.jpg	1	0.1	721.493	725.227	722.195	1
32	2	22	172	725.534	4	Aircraft2_10%_12.jpg	1	0.1	725.534	729.266	726.212	1
32	2	22	173	729.559	4	Aircraft2_10%_7.jpg	1	0.1	729.559	733.289	730.223	1
32	2	22	174	733.567	4	rest.jpg	n/a	n/a	733.567	737.302	737.567	n/a
32	2	22	175	737.55	4	rest.jpg	n/a	n/a	737.55	741.279	741.55	n/a
32	2	22	176	741.513	4	rest.jpg	n/a	n/a	741.513	745.242	745.513	n/a
32	2	23	177	745.504	4	Aircraft2_90%_17.jpg	1	0.9	745.504	749.24	748.343	1
32	2	23	178	749.503	4	Aircraft2_90%_11.jpg	1	0.9	749.503	753.234	751.802	1
32	2	23	179	753.515	4	Aircraft1_90%_20.jpg	0	0.9	753.515	757.249	754.566	0
32	2	23	180	757.557	4	Aircraft2_90%_47.jpg	1	0.9	757.557	761.288	758.399	1
32	2	23	181	761.596	4	Aircraft2_90%_45.jpg	1	0.9	761.596	765.326	763.629	1
32	2	23	182	765.594	4	rest.jpg	n/a	n/a	765.594	769.325	769.594	n/a
32	2	23	183	769.556	4	rest.jpg	n/a	n/a	769.556	773.285	773.556	n/a
32	2	23	184	773.516	4	rest.jpg	n/a	n/a	773.516	777.245	777.516	n/a
32	2	24	185	777.569	4	Aircraft1_70%_38.jpg	0	0.75	777.569	781.298	779.819	0
32	2	24	186	781.579	4	Aircraft2_70%_21.jpg	1	0.75	781.579	785.313	783.672	1
32	2	24	187	785.583	4	Aircraft1_70%_16.jpg	0	0.75	785.583	789.319	787.439	0
32	2	24	188	789.597	4	Aircraft1_70%_46.jpg	0	0.75	789.597	793.328	791.321	0
32	2	24	189	793.653	4	Aircraft2_70%_40.jpg	1	0.75	793.653	797.382	795.219	1
32	2	24	190	797.666	4	rest.jpg	n/a	n/a	797.666	801.395	801.666	n/a
32	2	24	191	801.645	4	rest.jpg	n/a	n/a	801.645	805.381	805.645	n/a
32	2	24	192	805.622	4	rest.jpg	n/a	n/a	805.622	809.351	809.622	n/a
32	2	25	193	809.637	4	Aircraft1_10%_3.jpg	0	0.1	809.637	813.371	810.402	0
32	2	25	194	813.692	4	Aircraft2_10%_28.jpg	1	0.1	813.692	817.427	815.41	1
32	2	25	195	817.703	4	Aircraft1_10%_24.jpg	0	0.1	817.703	821.439	818.348	0
32	2	25	196	821.735	4	Aircraft2_10%_39.jpg	1	0.1	821.735	825.466	822.417	1
32	2	25	197	825.734	4	Aircraft2_10%_8.jpg	1	0.1	825.734	829.467	826.464	1
32	2	25	198	829.745	4	rest.jpg	n/a	n/a	829.745	833.48	833.745	n/a
32	2	25	199	833.712	4	rest.jpg	n/a	n/a	833.712	837.448	837.712	n/a
32	2	25	200	837.692	4	rest.jpg	n/a	n/a	837.692	841.427	841.692	n/a
32	2	26	201	841.71	4	Aircraft1_90%_36.jpg	0	0.9	841.71	845.441	842.804	0
32	2	26	202	845.712	4	Aircraft1_90%_35.jpg	0	0.9	845.712	849.443	848.349	0
32	2	26	203	849.745	4	Aircraft2_90%_3.jpg	1	0.9	849.745	853.474	851.412	1
32	2	26	204	853.772	4	Aircraft1_90%_5.jpg	0	0.9	853.772	857.507	855.627	0
32	2	26	205	857.82	4	Aircraft1_90%_48.jpg	0	0.9	857.82	861.551	860.254	0
32	2	26	206	861.835	4	rest.jpg	n/a	n/a	861.835	865.563	865.835	n/a
32	2	26	207	865.794	4	rest.jpg	n/a	n/a	865.794	869.529	869.794	n/a
32	2	26	208	869.759	4	rest.jpg	n/a	n/a	869.759	873.488	873.759	n/a
32	2	27	209	873.79	4	Aircraft2_70%_30.jpg	1	0.75	873.79	877.519	875.286	1
32	2	27	210	877.83	4	Aircraft2_70%_27.jpg	1	0.75	877.83	881.559	880.588	1
32	2	27	211	881.822	4	Aircraft2_70%_50.jpg	1	0.75	881.822	885.554	883.512	1
32	2	27	212	885.85	4	Aircraft2_70%_29.jpg	1	0.75	885.85	889.586	887.605	1
32	2	27	213	889.855	4	Aircraft1_70%_6.jpg	0	0.75	889.855	893.591	890.982	0
32	2	27	214	893.856	4	rest.jpg	n/a	n/a	893.856	897.587	897.856	n/a
32	2	27	215	897.835	4	rest.jpg	n/a	n/a	897.835	901.563	901.835	n/a
32	2	27	216	901.797	4	rest.jpg	n/a	n/a	901.797	905.531	905.797	n/a
32	2	28	217	905.854	4	Aircraft2_10%_14.jpg	1	0.1	905.854	909.586	906.81	1
32	2	28	218	909.902	4	Aircraft2_10%_5.jpg	1	0.1	909.902	913.631	910.471	1
32	2	28	219	913.955	4	Aircraft2_10%_15.jpg	1	0.1	913.955	917.691	914.505	1
32	2	28	220	917.958	4	Aircraft2_10%_19.jpg	1	0.1	917.958	921.691	918.565	1
32	2	28	221	922.021	4	Aircraft1_10%_31.jpg	0	0.1	922.021	925.752	922.774	0
32	2	28	222	926.017	4	rest.jpg	n/a	n/a	926.017	929.753	930.017	n/a
32	2	28	223	929.998	4	rest.jpg	n/a	n/a	929.998	933.734	933.998	n/a
32	2	28	224	933.966	4	rest.jpg	n/a	n/a	933.966	937.696	937.966	n/a
32	2	29	225	937.982	4	Aircraft1_90%_2.jpg	0	0.9	937.982	941.716	940.412	0
32	2	29	226	942.02	4	Aircraft1_90%_39.jpg	0	0.9	942.02	945.752	944.162	0
32	2	29	227	946.062	4	Aircraft2_90%_26.jpg	1	0.9	946.062	949.793	946.857	1
32	2	29	228	950.106	4	Aircraft1_90%_15.jpg	0	0.9	950.106	953.836	952.439	0
32	2	29	229	954.18	4	Aircraft2_90%_16.jpg	1	0.9	954.18	957.911	955.727	1
32	2	29	230	958.176	4	rest.jpg	n/a	n/a	958.176	961.904	962.176	n/a
32	2	29	231	962.154	4	rest.jpg	n/a	n/a	962.154	965.884	966.154	n/a
32	2	29	232	966.135	4	rest.jpg	n/a	n/a	966.135	969.866	970.135	n/a
32	2	30	233	970.148	4	Aircraft1_70%_1.jpg	0	0.75	970.148	973.877	972.056	0
32	2	30	234	974.191	4	Aircraft1_70%_47.jpg	0	0.75	974.191	977.922	976.393	0
32	2	30	235	978.241	4	Aircraft1_70%_40.jpg	0	0.75	978.241	981.977	981.259	0
32	2	30	236	982.29	4	Aircraft1_70%_27.jpg	0	0.75	982.29	986.019	985.69	0
32	2	30	237	986.32	4	Aircraft2_70%_35.jpg	1	0.75	986.32	990.049	987.495	1
32	2	30	238	990.33	4	rest.jpg	n/a	n/a	990.33	994.06	994.33	n/a
32	2	30	239	994.31	4	rest.jpg	n/a	n/a	994.31	998.048	998.31	n/a
32	2	30	240	998.285	4	rest.jpg	n/a	n/a	998.285	1002.014	1002.285	n/a
