onset	duration	stim_file	stim_lable	levelOfOcclusion	stim_started	stim_stopped	key_time	key_fix
39.986	4	Aircraft1_10%_2.jpg	0	0.1	39.986	43.725	42.628	0
43.999	4	Aircraft1_10%_39.jpg	0	0.1	43.999	47.739	45.553	0
48.002	4	Aircraft2_10%_26.jpg	1	0.1	48.002	51.742	50.291	1
52.027	4	Aircraft1_10%_15.jpg	0	0.1	52.027	55.77	54.231	0
56.057	4	Aircraft2_10%_16.jpg	1	0.1	56.057	59.788	57.817	1
60.071	4	rest.jpg	NaN	NaN	60.071	63.803	64.071	NaN
64.056	4	rest.jpg	NaN	NaN	64.056	67.789	68.056	NaN
68.021	4	rest.jpg	NaN	NaN	68.021	71.76	72.021	NaN
72.038	4	Aircraft2_90%_14.jpg	1	0.9	72.038	75.774	74.55	1
76.049	4	Aircraft2_90%_5.jpg	1	0.9	76.049	79.782	78.345	1
80.041	4	Aircraft2_90%_15.jpg	1	0.9	80.041	83.774	80.929	1
84.035	4	Aircraft2_90%_19.jpg	1	0.9	84.035	87.769	86.581	1
88.03	4	Aircraft1_90%_31.jpg	0	0.9	88.03	91.768	91.525	0
92.047	4	rest.jpg	NaN	NaN	92.047	95.782	96.047	NaN
96.014	4	rest.jpg	NaN	NaN	96.014	99.751	100.014	NaN
99.986	4	rest.jpg	NaN	NaN	99.986	103.717	103.986	NaN
103.997	4	Aircraft2_70%_4.jpg	1	0.75	103.997	107.732	107.213	1
107.996	4	Aircraft1_70%_43.jpg	0	0.75	107.996	111.735	111.996	0
112.012	4	Aircraft1_70%_9.jpg	0	0.75	112.012	115.748	114.106	0
116.023	4	Aircraft1_70%_11.jpg	0	0.75	116.023	119.758	120.023	0
120.042	4	Aircraft1_70%_50.jpg	0	0.75	120.042	123.779	124.042	0
124.043	4	rest.jpg	NaN	NaN	124.043	127.778	124.321	NaN
128.024	4	rest.jpg	NaN	NaN	128.024	131.761	132.024	NaN
132.006	4	rest.jpg	NaN	NaN	132.006	135.739	136.006	NaN
136.003	4	Aircraft1_10%_36.jpg	0	0.1	136.003	139.74	138.663	0
140.018	4	Aircraft1_10%_35.jpg	0	0.1	140.018	143.753	141.592	0
144.018	4	Aircraft2_10%_3.jpg	1	0.1	144.018	147.756	145.227	1
148.027	4	Aircraft1_10%_5.jpg	0	0.1	148.027	151.765	148.882	0
152.053	4	Aircraft1_10%_48.jpg	0	0.1	152.053	155.783	154.858	0
156.047	4	rest.jpg	NaN	NaN	156.047	159.781	160.047	NaN
160.016	4	rest.jpg	NaN	NaN	160.016	163.75	164.016	NaN
163.99	4	rest.jpg	NaN	NaN	163.99	167.723	167.99	NaN
167.983	4	Aircraft1_90%_3.jpg	0	0.9	167.983	171.717	170.322	0
171.991	4	Aircraft2_90%_28.jpg	1	0.9	171.991	175.723	173.056	1
175.989	4	Aircraft1_90%_24.jpg	0	0.9	175.989	179.724	177.954	0
180.001	4	Aircraft2_90%_39.jpg	1	0.9	180.001	183.739	182.934	1
184.018	4	Aircraft2_90%_8.jpg	1	0.9	184.018	187.754	186.371	1
188.032	4	rest.jpg	NaN	NaN	188.032	191.766	192.032	NaN
191.997	4	rest.jpg	NaN	NaN	191.997	195.731	195.997	NaN
195.963	4	rest.jpg	NaN	NaN	195.963	199.698	199.963	NaN
199.964	4	Aircraft2_70%_18.jpg	1	0.75	199.964	203.696	201.23	1
203.98	4	Aircraft1_70%_29.jpg	0	0.75	203.98	207.712	205.893	0
207.976	4	Aircraft2_70%_1.jpg	1	0.75	207.976	211.708	209.886	1
211.986	4	Aircraft1_70%_26.jpg	0	0.75	211.986	215.723	212.822	0
215.987	4	Aircraft2_70%_34.jpg	1	0.75	215.987	219.722	218.46	1
219.997	4	rest.jpg	NaN	NaN	219.997	223.73	223.997	NaN
223.981	4	rest.jpg	NaN	NaN	223.981	227.717	227.981	NaN
227.948	4	rest.jpg	NaN	NaN	227.948	231.683	231.948	NaN
231.962	4	Aircraft2_10%_17.jpg	1	0.1	231.962	235.696	233.349	1
235.963	4	Aircraft2_10%_11.jpg	1	0.1	235.963	239.696	237.173	1
239.98	4	Aircraft1_10%_20.jpg	0	0.1	239.98	243.714	240.872	0
243.997	4	Aircraft2_10%_47.jpg	1	0.1	243.997	247.73	244.901	1
248.012	4	Aircraft2_10%_45.jpg	1	0.1	248.012	251.747	249.245	1
252.023	4	rest.jpg	NaN	NaN	252.023	255.758	256.023	NaN
255.989	4	rest.jpg	NaN	NaN	255.989	259.727	259.989	NaN
259.976	4	rest.jpg	NaN	NaN	259.976	263.712	263.976	NaN
263.972	4	Aircraft1_90%_25.jpg	0	0.9	263.972	267.71	265.901	0
267.987	4	Aircraft2_90%_49.jpg	1	0.9	267.987	271.727	270.866	1
272.007	4	Aircraft2_90%_10.jpg	1	0.9	272.007	275.738	273.7	1
276.002	4	Aircraft2_90%_12.jpg	1	0.9	276.002	279.739	277.022	1
280.017	4	Aircraft2_90%_7.jpg	1	0.9	280.017	283.75	281.787	1
284.014	4	rest.jpg	NaN	NaN	284.014	287.746	288.014	NaN
287.978	4	rest.jpg	NaN	NaN	287.978	291.713	291.978	NaN
291.945	4	rest.jpg	NaN	NaN	291.945	295.684	295.945	NaN
295.946	4	Aircraft1_70%_32.jpg	0	0.75	295.946	299.679	297.774	0
299.953	4	Aircraft1_70%_49.jpg	0	0.75	299.953	303.695	301.496	0
303.969	4	Aircraft2_70%_22.jpg	1	0.75	303.969	307.703	306.725	1
307.969	4	Aircraft1_70%_34.jpg	0	0.75	307.969	311.702	309.285	0
311.98	4	Aircraft1_70%_14.jpg	0	0.75	311.98	315.719	313.894	0
315.982	4	rest.jpg	NaN	NaN	315.982	319.721	319.982	NaN
319.956	4	rest.jpg	NaN	NaN	319.956	323.693	323.956	NaN
323.939	4	rest.jpg	NaN	NaN	323.939	327.673	327.939	NaN
327.94	4	Aircraft1_10%_1.jpg	0	0.1	327.94	331.672	329.077	0
331.952	4	Aircraft1_10%_47.jpg	0	0.1	331.952	335.687	333.585	0
335.955	4	Aircraft1_10%_40.jpg	0	0.1	335.955	339.688	336.663	0
339.968	4	Aircraft1_10%_27.jpg	0	0.1	339.968	343.701	341.324	0
343.981	4	Aircraft2_10%_35.jpg	1	0.1	343.981	347.714	345.213	1
347.978	4	rest.jpg	NaN	NaN	347.978	351.71	351.978	NaN
351.941	4	rest.jpg	NaN	NaN	351.941	355.674	355.941	NaN
355.906	4	rest.jpg	NaN	NaN	355.906	359.638	359.906	NaN
359.898	4	Aircraft1_90%_32.jpg	0	0.9	359.898	363.633	361.374	0
363.902	4	Aircraft1_90%_49.jpg	0	0.9	363.902	367.632	364.64	0
367.909	4	Aircraft2_90%_22.jpg	1	0.9	367.909	371.639	371.016	1
371.899	4	Aircraft1_90%_34.jpg	0	0.9	371.899	375.631	373.979	0
375.904	4	Aircraft1_90%_14.jpg	0	0.9	375.904	379.633	378.057	0
379.895	4	rest.jpg	NaN	NaN	379.895	383.631	383.895	NaN
383.861	4	rest.jpg	NaN	NaN	383.861	387.59	387.861	NaN
387.836	4	rest.jpg	NaN	NaN	387.836	391.572	391.836	NaN
391.85	4	Aircraft2_70%_24.jpg	1	0.75	391.85	395.583	393.192	1
395.847	4	Aircraft2_70%_2.jpg	1	0.75	395.847	399.579	396.832	1
399.844	4	Aircraft2_70%_43.jpg	1	0.75	399.844	403.574	400.667	1
403.84	4	Aircraft2_70%_46.jpg	1	0.75	403.84	407.573	404.686	1
407.854	4	Aircraft1_70%_42.jpg	0	0.75	407.854	411.586	409.614	0
411.851	4	rest.jpg	NaN	NaN	411.851	415.581	415.851	NaN
415.827	4	rest.jpg	NaN	NaN	415.827	419.558	419.827	NaN
419.804	4	rest.jpg	NaN	NaN	419.804	423.534	423.804	NaN
423.799	4	Aircraft2_10%_30.jpg	1	0.1	423.799	427.537	426.29	1
427.805	4	Aircraft2_10%_27.jpg	1	0.1	427.805	431.535	429.353	1
431.802	4	Aircraft2_10%_50.jpg	1	0.1	431.802	435.535	432.58	1
435.803	4	Aircraft2_10%_29.jpg	1	0.1	435.803	439.533	436.581	1
439.8	4	Aircraft1_10%_6.jpg	0	0.1	439.8	443.536	440.592	0
443.813	4	rest.jpg	NaN	NaN	443.813	447.548	447.813	NaN
447.782	4	rest.jpg	NaN	NaN	447.782	451.512	451.782	NaN
451.741	4	rest.jpg	NaN	NaN	451.741	455.476	455.741	NaN
455.735	4	Aircraft2_90%_18.jpg	1	0.9	455.735	459.472	456.781	1
459.745	4	Aircraft1_90%_29.jpg	0	0.9	459.745	463.48	460.503	0
463.741	4	Aircraft2_90%_1.jpg	1	0.9	463.741	467.479	465.502	1
467.739	4	Aircraft1_90%_26.jpg	0	0.9	467.739	471.469	470.08	0
471.745	4	Aircraft2_90%_34.jpg	1	0.9	471.745	475.477	473.54	1
475.742	4	rest.jpg	NaN	NaN	475.742	479.471	479.742	NaN
479.701	4	rest.jpg	NaN	NaN	479.701	483.431	483.701	NaN
483.675	4	rest.jpg	NaN	NaN	483.675	487.405	487.675	NaN
487.674	4	Aircraft1_70%_17.jpg	0	0.75	487.674	491.406	488.807	0
491.671	4	Aircraft2_70%_42.jpg	1	0.75	491.671	495.408	492.295	1
495.689	4	Aircraft2_70%_44.jpg	1	0.75	495.689	499.424	497.392	1
499.69	4	Aircraft1_70%_10.jpg	0	0.75	499.69	503.423	501.204	0
503.704	4	Aircraft2_70%_25.jpg	1	0.75	503.704	507.439	504.773	1
507.703	4	rest.jpg	NaN	NaN	507.703	511.432	511.703	NaN
511.675	4	rest.jpg	NaN	NaN	511.675	515.407	515.675	NaN
515.65	4	rest.jpg	NaN	NaN	515.65	519.385	519.65	NaN
519.665	4	Aircraft1_10%_38.jpg	0	0.1	519.665	523.397	520.832	0
523.664	4	Aircraft2_10%_21.jpg	1	0.1	523.664	527.397	524.776	1
527.665	4	Aircraft1_10%_16.jpg	0	0.1	527.665	531.4	528.827	0
531.686	4	Aircraft1_10%_46.jpg	0	0.1	531.686	535.417	532.373	0
535.7	4	Aircraft2_10%_40.jpg	1	0.1	535.7	539.433	536.639	1
539.699	4	rest.jpg	NaN	NaN	539.699	543.434	543.699	NaN
543.666	4	rest.jpg	NaN	NaN	543.666	547.395	547.666	NaN
547.64	4	rest.jpg	NaN	NaN	547.64	551.372	551.64	NaN
551.639	4	Aircraft2_90%_4.jpg	1	0.9	551.639	555.377	553.662	1
555.637	4	Aircraft1_90%_43.jpg	0	0.9	555.637	559.367	557.438	0
559.627	4	Aircraft1_90%_9.jpg	0	0.9	559.627	563.357	562.777	0
563.632	4	Aircraft1_90%_11.jpg	0	0.9	563.632	567.362	565.073	0
567.622	4	Aircraft1_90%_50.jpg	0	0.9	567.622	571.352	568.69	0
571.615	4	rest.jpg	NaN	NaN	571.615	575.347	575.615	NaN
575.598	4	rest.jpg	NaN	NaN	575.598	579.327	579.598	NaN
579.557	4	rest.jpg	NaN	NaN	579.557	583.293	583.557	NaN
583.571	4	Aircraft1_70%_12.jpg	0	0.75	583.571	587.309	585.706	0
587.585	4	Aircraft2_70%_32.jpg	1	0.75	587.585	591.318	590.11	1
591.58	4	Aircraft2_70%_48.jpg	1	0.75	591.58	595.317	593.629	1
595.592	4	Aircraft1_70%_19.jpg	0	0.75	595.592	599.329	597.621	0
599.611	4	Aircraft1_70%_33.jpg	0	0.75	599.611	603.343	601.03	0
603.608	4	rest.jpg	NaN	NaN	603.608	607.338	607.608	NaN
607.57	4	rest.jpg	NaN	NaN	607.57	611.301	611.57	NaN
611.544	4	rest.jpg	NaN	NaN	611.544	615.273	615.544	NaN
615.538	4	Aircraft2_10%_23.jpg	1	0.1	615.538	619.27	617.375	1
619.548	4	Aircraft1_10%_28.jpg	0	0.1	619.548	623.284	621.972	0
623.549	4	Aircraft2_10%_13.jpg	1	0.1	623.549	627.286	624.45	1
627.562	4	Aircraft1_10%_45.jpg	0	0.1	627.562	631.292	628.52	0
631.567	4	Aircraft1_10%_37.jpg	0	0.1	631.567	635.297	633.177	0
635.56	4	rest.jpg	NaN	NaN	635.56	639.291	639.56	NaN
639.532	4	rest.jpg	NaN	NaN	639.532	643.265	643.532	NaN
643.515	4	rest.jpg	NaN	NaN	643.515	647.244	647.515	NaN
647.503	4	Aircraft2_90%_33.jpg	1	0.9	647.503	651.235	649.48	1
651.495	4	Aircraft2_90%_38.jpg	1	0.9	651.495	655.227	652.369	1
655.488	4	Aircraft1_90%_30.jpg	0	0.9	655.488	659.225	656.854	0
659.504	4	Aircraft1_90%_41.jpg	0	0.9	659.504	663.235	660.665	0
663.515	4	Aircraft1_90%_18.jpg	0	0.9	663.515	667.25	666.431	0
667.532	4	rest.jpg	NaN	NaN	667.532	671.267	671.532	NaN
671.512	4	rest.jpg	NaN	NaN	671.512	675.242	675.512	NaN
675.475	4	rest.jpg	NaN	NaN	675.475	679.21	679.475	NaN
679.493	4	Aircraft2_70%_9.jpg	1	0.75	679.493	683.224	681.619	1
683.5	4	Aircraft2_70%_6.jpg	1	0.75	683.5	687.233	684.56	1
687.51	4	Aircraft1_70%_23.jpg	0	0.75	687.51	691.243	688.625	0
691.524	4	Aircraft1_70%_21.jpg	0	0.75	691.524	695.257	692.674	0
695.523	4	Aircraft2_70%_36.jpg	1	0.75	695.523	699.253	697.267	1
699.516	4	rest.jpg	NaN	NaN	699.516	703.246	703.516	NaN
703.478	4	rest.jpg	NaN	NaN	703.478	707.21	707.478	NaN
707.452	4	rest.jpg	NaN	NaN	707.452	711.188	711.452	NaN
711.455	4	Aircraft2_10%_41.jpg	1	0.1	711.455	715.19	712.657	1
715.473	4	Aircraft1_10%_22.jpg	0	0.1	715.473	719.209	716.417	0
719.471	4	Aircraft1_10%_44.jpg	0	0.1	719.471	723.204	720.692	0
723.479	4	Aircraft1_10%_1.jpg	0	0.1	723.479	727.209	725.497	0
727.475	4	Aircraft2_10%_37.jpg	1	0.1	727.475	731.21	728.303	1
731.481	4	rest.jpg	NaN	NaN	731.481	735.214	735.481	NaN
735.446	4	rest.jpg	NaN	NaN	735.446	739.176	739.446	NaN
739.42	4	rest.jpg	NaN	NaN	739.42	743.15	743.42	NaN
743.41	4	Aircraft2_90%_31.jpg	1	0.9	743.41	747.14	744.763	1
747.415	4	Aircraft1_90%_4.jpg	0	0.9	747.415	751.15	748.297	0
751.427	4	Aircraft2_90%_20.jpg	1	0.9	751.427	755.161	753.199	1
755.435	4	Aircraft1_90%_7.jpg	0	0.9	755.435	759.167	757.235	0
759.428	4	Aircraft1_90%_8.jpg	0	0.9	759.428	763.16	761.829	0
763.422	4	rest.jpg	NaN	NaN	763.422	767.159	767.422	NaN
767.405	4	rest.jpg	NaN	NaN	767.405	771.14	771.405	NaN
771.381	4	rest.jpg	NaN	NaN	771.381	775.111	775.381	NaN
775.397	4	Aircraft2_70%_14.jpg	1	0.75	775.397	779.127	777.784	1
779.399	4	Aircraft2_70%_5.jpg	1	0.75	779.399	783.13	780.596	1
783.41	4	Aircraft2_70%_15.jpg	1	0.75	783.41	787.14	784.288	1
787.401	4	Aircraft2_70%_19.jpg	1	0.75	787.401	791.131	788.545	1
791.415	4	Aircraft1_70%_31.jpg	0	0.75	791.415	795.148	792.299	0
795.413	4	rest.jpg	NaN	NaN	795.413	799.145	799.413	NaN
799.377	4	rest.jpg	NaN	NaN	799.377	803.107	803.377	NaN
803.339	4	rest.jpg	NaN	NaN	803.339	807.076	807.339	NaN
807.343	4	Aircraft2_10%_9.jpg	1	0.1	807.343	811.075	808.509	1
811.346	4	Aircraft2_10%_6.jpg	1	0.1	811.346	815.08	812.034	1
815.362	4	Aircraft1_10%_23.jpg	0	0.1	815.362	819.093	816.229	0
819.359	4	Aircraft1_10%_21.jpg	0	0.1	819.359	823.095	820.093	0
823.37	4	Aircraft2_10%_36.jpg	1	0.1	823.37	827.106	824.277	1
827.385	4	rest.jpg	NaN	NaN	827.385	831.114	831.385	NaN
831.346	4	rest.jpg	NaN	NaN	831.346	835.083	835.346	NaN
835.316	4	rest.jpg	NaN	NaN	835.316	839.048	839.316	NaN
839.308	4	Aircraft2_90%_24.jpg	1	0.9	839.308	843.038	840.086	1
843.299	4	Aircraft2_90%_2.jpg	1	0.9	843.299	847.031	844.287	1
847.292	4	Aircraft2_90%_43.jpg	1	0.9	847.292	851.023	848.137	1
851.283	4	Aircraft2_90%_46.jpg	1	0.9	851.283	855.015	853.395	1
855.294	4	Aircraft1_90%_42.jpg	0	0.9	855.294	859.024	857.152	0
859.289	4	rest.jpg	NaN	NaN	859.289	863.02	863.289	NaN
863.263	4	rest.jpg	NaN	NaN	863.263	866.995	867.263	NaN
867.231	4	rest.jpg	NaN	NaN	867.231	870.962	871.231	NaN
871.247	4	Aircraft1_70%_3.jpg	0	0.75	871.247	874.982	872.466	0
875.248	4	Aircraft2_70%_28.jpg	1	0.75	875.248	878.98	876.043	1
879.246	4	Aircraft1_70%_24.jpg	0	0.75	879.246	882.977	880.911	0
883.251	4	Aircraft2_70%_39.jpg	1	0.75	883.251	886.984	884.945	1
887.248	4	Aircraft2_70%_8.jpg	1	0.75	887.248	890.984	887.996	1
891.259	4	rest.jpg	NaN	NaN	891.259	894.991	895.259	NaN
895.24	4	rest.jpg	NaN	NaN	895.24	898.978	899.24	NaN
899.221	4	rest.jpg	NaN	NaN	899.221	902.956	903.221	NaN
903.22	4	Aircraft1_10%_12.jpg	0	0.1	903.22	906.953	906.239	0
907.229	4	Aircraft2_10%_32.jpg	1	0.1	907.229	910.959	908.237	1
911.241	4	Aircraft2_10%_48.jpg	1	0.1	911.241	914.971	912.19	1
915.251	4	Aircraft1_10%_19.jpg	0	0.1	915.251	918.983	916.227	0
919.254	4	Aircraft1_10%_33.jpg	0	0.1	919.254	922.984	921.924	0
923.249	4	rest.jpg	NaN	NaN	923.249	926.979	927.249	NaN
927.223	4	rest.jpg	NaN	NaN	927.223	930.96	931.223	NaN
931.209	4	rest.jpg	NaN	NaN	931.209	934.944	935.209	NaN
935.206	4	Aircraft1_90%_17.jpg	0	0.9	935.206	938.942	937.141	0
939.204	4	Aircraft2_90%_42.jpg	1	0.9	939.204	942.934	940.252	1
943.212	4	Aircraft2_90%_44.jpg	1	0.9	943.212	946.942	944.761	1
947.21	4	Aircraft1_90%_10.jpg	0	0.9	947.21	950.942	949.678	0
951.22	4	Aircraft2_90%_25.jpg	1	0.9	951.22	954.952	954.018	1
955.214	4	rest.jpg	NaN	NaN	955.214	958.946	959.214	NaN
959.196	4	rest.jpg	NaN	NaN	959.196	962.933	963.196	NaN
963.165	4	rest.jpg	NaN	NaN	963.165	966.902	967.165	NaN
967.182	4	Aircraft1_70%_25.jpg	0	0.75	967.182	970.915	970.115	0
971.176	4	Aircraft2_70%_49.jpg	1	0.75	971.176	974.909	972.159	1
975.192	4	Aircraft2_70%_10.jpg	1	0.75	975.192	978.924	976.772	1
979.204	4	Aircraft2_70%_12.jpg	1	0.75	979.204	982.934	980.309	1
983.214	4	Aircraft2_70%_7.jpg	1	0.75	983.214	986.943	986.484	1
987.207	4	rest.jpg	NaN	NaN	987.207	990.939	991.207	NaN
991.169	4	rest.jpg	NaN	NaN	991.169	994.904	995.169	NaN
995.134	4	rest.jpg	NaN	NaN	995.134	998.869	999.134	NaN
