onset	duration	stim_file	stim_lable	levelOfOcclusion	stim_started	stim_stopped	key_time	key_fix	stim_started_1	stim_stopped_1	key_time_1	key_fix_1
40.2	4	Aircraft1_10%_17.jpg	0	0.1	40.2	43.947	41.067	0	40.2	43.947	41.067	0
44.201	4	Aircraft2_10%_42.jpg	1	0.1	44.201	47.95	44.961	1	44.201	47.95	44.961	1
48.204	4	Aircraft2_10%_44.jpg	1	0.1	48.204	51.95	49.063	1	48.204	51.95	49.063	1
52.217	4	Aircraft1_10%_10.jpg	0	0.1	52.217	55.964	53.092	0	52.217	55.964	53.092	0
56.23	4	Aircraft2_10%_25.jpg	1	0.1	56.23	59.979	57.139	1	56.23	59.979	57.139	1
60.229	4	rest.jpg	NaN	NaN	60.229	63.983	64.229	NaN	60.229	63.983	64.229	NaN
64.228	4	rest.jpg	NaN	NaN	64.228	67.978	68.228	NaN	64.228	67.978	68.228	NaN
68.222	4	rest.jpg	NaN	NaN	68.222	71.975	72.222	NaN	68.222	71.975	72.222	NaN
72.229	4	Aircraft1_90%_12.jpg	0	0.9	72.229	75.976	75.583	0	72.229	75.976	75.583	0
76.241	4	Aircraft2_90%_32.jpg	1	0.9	76.241	79.988	77.793	1	76.241	79.988	77.793	1
80.241	4	Aircraft2_90%_48.jpg	1	0.9	80.241	83.993	81.475	1	80.241	83.993	81.475	1
84.255	4	Aircraft1_90%_19.jpg	0	0.9	84.255	88.001	87.654	0	84.255	88.001	87.654	0
88.265	4	Aircraft1_90%_33.jpg	0	0.9	88.265	92.023	90.903	0	88.265	92.023	90.903	0
92.271	4	rest.jpg	NaN	NaN	92.271	96.019	96.271	NaN	92.271	96.019	96.271	NaN
96.264	4	rest.jpg	NaN	NaN	96.264	100.011	100.264	NaN	96.264	100.011	100.264	NaN
100.248	4	rest.jpg	NaN	NaN	100.248	103.997	104.248	NaN	100.248	103.997	104.248	NaN
104.262	4	Aircraft2_70%_33.jpg	1	0.75	104.262	108.01	105.403	1	104.262	108.01	105.403	1
108.261	4	Aircraft2_70%_38.jpg	1	0.75	108.261	112.01	109.215	1	108.261	112.01	109.215	1
112.275	4	Aircraft1_70%_30.jpg	0	0.75	112.275	116.024	114.345	0	112.275	116.024	114.345	0
116.29	4	Aircraft1_70%_41.jpg	0	0.75	116.29	120.042	117.907	0	116.29	120.042	117.907	0
120.308	4	Aircraft1_70%_18.jpg	0	0.75	120.308	124.059	121.39	0	120.308	124.059	121.39	0
124.307	4	rest.jpg	NaN	NaN	124.307	128.062	128.307	NaN	124.307	128.062	128.307	NaN
128.305	4	rest.jpg	NaN	NaN	128.305	132.058	132.305	NaN	128.305	132.058	132.305	NaN
132.29	4	rest.jpg	NaN	NaN	132.29	136.042	136.29	NaN	132.29	136.042	136.29	NaN
136.29	4	Aircraft2_10%_24.jpg	1	0.1	136.29	140.044	137.161	1	136.29	140.044	137.161	1
140.301	4	Aircraft2_10%_2.jpg	1	0.1	140.301	144.051	141.304	1	140.301	144.051	141.304	1
144.301	4	Aircraft2_10%_43.jpg	1	0.1	144.301	148.055	145.29	1	144.301	148.055	145.29	1
148.306	4	Aircraft2_10%_46.jpg	1	0.1	148.306	152.061	149.052	1	148.306	152.061	149.052	1
152.312	4	Aircraft1_10%_42.jpg	0	0.1	152.312	156.061	153.541	0	152.312	156.061	153.541	0
156.319	4	rest.jpg	NaN	NaN	156.319	160.069	160.319	NaN	156.319	160.069	160.319	NaN
160.305	4	rest.jpg	NaN	NaN	160.305	164.052	164.305	NaN	160.305	164.052	164.305	NaN
164.299	4	rest.jpg	NaN	NaN	164.299	168.049	168.299	NaN	164.299	168.049	168.299	NaN
168.309	4	Aircraft2_90%_9.jpg	1	0.9	168.309	172.056	171.931	1	168.309	172.056	171.931	1
172.325	4	Aircraft2_90%_6.jpg	1	0.9	172.325	176.075	176.325	1	172.325	176.075	176.325	1
176.326	4	Aircraft1_90%_23.jpg	0	0.9	176.326	180.075	178.696	0	176.326	180.075	178.696	0
180.338	4	Aircraft1_90%_21.jpg	0	0.9	180.338	184.085	183.142	0	180.338	184.085	183.142	0
184.347	4	Aircraft2_90%_36.jpg	1	0.9	184.347	188.101	185.451	1	184.347	188.101	185.451	1
188.351	4	rest.jpg	NaN	NaN	188.351	192.098	192.351	NaN	188.351	192.098	192.351	NaN
192.332	4	rest.jpg	NaN	NaN	192.332	196.084	196.332	NaN	192.332	196.084	196.332	NaN
196.333	4	rest.jpg	NaN	NaN	196.333	200.087	200.333	NaN	196.333	200.087	200.333	NaN
200.334	4	Aircraft2_70%_31.jpg	1	0.75	200.334	204.084	201.336	1	200.334	204.084	201.336	1
204.346	4	Aircraft1_70%_4.jpg	0	0.75	204.346	208.098	205.996	0	204.346	208.098	205.996	0
208.359	4	Aircraft2_70%_20.jpg	1	0.75	208.359	212.112	209.56	1	208.359	212.112	209.56	1
212.364	4	Aircraft1_70%_7.jpg	0	0.75	212.364	216.116	213.811	0	212.364	216.116	213.811	0
216.373	4	Aircraft1_70%_8.jpg	0	0.75	216.373	220.126	218.848	0	216.373	220.126	218.848	0
220.383	4	rest.jpg	NaN	NaN	220.383	224.132	224.383	NaN	220.383	224.132	224.383	NaN
224.366	4	rest.jpg	NaN	NaN	224.366	228.116	228.366	NaN	224.366	228.116	228.366	NaN
228.368	4	rest.jpg	NaN	NaN	228.368	232.122	232.368	NaN	228.368	232.122	232.368	NaN
232.373	4	Aircraft2_10%_31.jpg	1	0.1	232.373	236.121	234.011	1	232.373	236.121	234.011	1
236.372	4	Aircraft1_10%_4.jpg	0	0.1	236.372	240.124	238.223	0	236.372	240.124	238.223	0
240.39	4	Aircraft2_10%_20.jpg	1	0.1	240.39	244.145	241.546	1	240.39	244.145	241.546	1
244.413	4	Aircraft1_10%_7.jpg	0	0.1	244.413	248.167	245.301	0	244.413	248.167	245.301	0
248.434	4	Aircraft1_10%_8.jpg	0	0.1	248.434	252.183	249.431	0	248.434	252.183	249.431	0
252.433	4	rest.jpg	NaN	NaN	252.433	256.18	256.433	NaN	252.433	256.18	256.433	NaN
256.414	4	rest.jpg	NaN	NaN	256.414	260.166	260.414	NaN	256.414	260.166	260.414	NaN
260.415	4	rest.jpg	NaN	NaN	260.415	264.169	264.415	NaN	260.415	264.169	264.415	NaN
264.428	4	Aircraft2_90%_41.jpg	1	0.9	264.428	268.177	266.171	1	264.428	268.177	266.171	1
268.444	4	Aircraft1_90%_22.jpg	0	0.9	268.444	272.19	271.083	0	268.444	272.19	271.083	0
272.445	4	Aircraft1_90%_44.jpg	0	0.9	272.445	276.192	274.069	0	272.445	276.192	274.069	0
276.456	4	Aircraft1_90%_1.jpg	0	0.9	276.456	280.208	277.451	0	276.456	280.208	277.451	0
280.461	4	Aircraft2_90%_37.jpg	1	0.9	280.461	284.21	281.535	1	280.461	284.21	281.535	1
284.46	4	rest.jpg	NaN	NaN	284.46	288.207	288.46	NaN	284.46	288.207	288.46	NaN
288.441	4	rest.jpg	NaN	NaN	288.441	292.19	292.441	NaN	288.441	292.19	292.441	NaN
292.424	4	rest.jpg	NaN	NaN	292.424	296.176	296.424	NaN	292.424	296.176	296.424	NaN
296.425	4	Aircraft2_70%_41.jpg	1	0.75	296.425	300.177	297.58	1	296.425	300.177	297.58	1
300.433	4	Aircraft1_70%_22.jpg	0	0.75	300.433	304.187	302.297	0	300.433	304.187	302.297	0
304.448	4	Aircraft1_70%_44.jpg	0	0.75	304.448	308.194	305.67	0	304.448	308.194	305.67	0
308.442	4	Aircraft1_70%_1.jpg	0	0.75	308.442	312.197	309.483	0	308.442	312.197	309.483	0
312.444	4	Aircraft2_70%_37.jpg	1	0.75	312.444	316.191	314.309	1	312.444	316.191	314.309	1
316.44	4	rest.jpg	NaN	NaN	316.44	320.187	320.44	NaN	316.44	320.187	320.44	NaN
320.421	4	rest.jpg	NaN	NaN	320.421	324.17	324.421	NaN	320.421	324.17	324.421	NaN
324.413	4	rest.jpg	NaN	NaN	324.413	328.167	328.413	NaN	324.413	328.167	328.413	NaN
328.418	4	Aircraft2_10%_33.jpg	1	0.1	328.418	332.173	329.505	1	328.418	332.173	329.505	1
332.438	4	Aircraft2_10%_38.jpg	1	0.1	332.438	336.187	333.149	1	332.438	336.187	333.149	1
336.438	4	Aircraft1_10%_30.jpg	0	0.1	336.438	340.185	337.284	0	336.438	340.185	337.284	0
340.436	4	Aircraft1_10%_41.jpg	0	0.1	340.436	344.188	341.104	0	340.436	344.188	341.104	0
344.443	4	Aircraft1_10%_18.jpg	0	0.1	344.443	348.193	345.129	0	344.443	348.193	345.129	0
348.454	4	rest.jpg	NaN	NaN	348.454	352.209	352.454	NaN	348.454	352.209	352.454	NaN
352.443	4	rest.jpg	NaN	NaN	352.443	356.19	356.443	NaN	352.443	356.19	356.443	NaN
356.437	4	rest.jpg	NaN	NaN	356.437	360.184	360.437	NaN	356.437	360.184	360.437	NaN
360.452	4	Aircraft2_90%_23.jpg	1	0.9	360.452	364.199	364.452	1	360.452	364.199	364.452	1
364.448	4	Aircraft1_90%_28.jpg	0	0.9	364.448	368.195	364.792	0	364.448	368.195	364.792	0
368.457	4	Aircraft2_90%_13.jpg	1	0.9	368.457	372.209	369.794	1	368.457	372.209	369.794	1
372.473	4	Aircraft1_90%_45.jpg	0	0.9	372.473	376.223	375.46	0	372.473	376.223	375.46	0
376.481	4	Aircraft1_90%_37.jpg	0	0.9	376.481	380.227	377.552	0	376.481	380.227	377.552	0
380.491	4	rest.jpg	NaN	NaN	380.491	384.246	384.491	NaN	380.491	384.246	384.491	NaN
384.478	4	rest.jpg	NaN	NaN	384.478	388.231	388.478	NaN	384.478	388.231	388.478	NaN
388.465	4	rest.jpg	NaN	NaN	388.465	392.215	392.465	NaN	388.465	392.215	392.465	NaN
392.465	4	Aircraft1_70%_2.jpg	0	0.75	392.465	396.219	393.567	0	392.465	396.219	393.567	0
396.469	4	Aircraft1_70%_39.jpg	0	0.75	396.469	400.223	398.547	0	396.469	400.223	398.547	0
400.472	4	Aircraft2_70%_26.jpg	1	0.75	400.472	404.227	401.777	1	400.472	404.227	401.777	1
404.481	4	Aircraft1_70%_15.jpg	0	0.75	404.481	408.231	408.481	0	404.481	408.231	408.481	0
408.497	4	Aircraft2_70%_16.jpg	1	0.75	408.497	412.251	408.779	1	408.497	412.251	408.779	1
412.501	4	rest.jpg	NaN	NaN	412.501	416.252	416.501	NaN	412.501	416.252	416.501	NaN
416.483	4	rest.jpg	NaN	NaN	416.483	420.23	420.483	NaN	416.483	420.23	420.483	NaN
420.461	4	rest.jpg	NaN	NaN	420.461	424.215	424.461	NaN	420.461	424.215	424.461	NaN
424.476	4	Aircraft2_10%_4.jpg	1	0.1	424.476	428.226	425.364	1	424.476	428.226	425.364	1
428.477	4	Aircraft1_10%_43.jpg	0	0.1	428.477	432.224	429.269	0	428.477	432.224	429.269	0
432.487	4	Aircraft1_10%_9.jpg	0	0.1	432.487	436.236	433.257	0	432.487	436.236	433.257	0
436.489	4	Aircraft1_10%_11.jpg	0	0.1	436.489	440.238	437.17	0	436.489	440.238	437.17	0
440.499	4	Aircraft1_10%_50.jpg	0	0.1	440.499	444.251	441.162	0	440.499	444.251	441.162	0
444.501	4	rest.jpg	NaN	NaN	444.501	448.254	448.501	NaN	444.501	448.254	448.501	NaN
448.488	4	rest.jpg	NaN	NaN	448.488	452.235	452.488	NaN	448.488	452.235	452.488	NaN
452.48	4	rest.jpg	NaN	NaN	452.48	456.23	456.48	NaN	452.48	456.23	456.48	NaN
456.478	4	Aircraft1_90%_38.jpg	0	0.9	456.478	460.227	457.912	0	456.478	460.227	457.912	0
460.49	4	Aircraft2_90%_21.jpg	1	0.9	460.49	464.237	461.967	1	460.49	464.237	461.967	1
464.491	4	Aircraft1_90%_16.jpg	0	0.9	464.491	468.238	465.788	0	464.491	468.238	465.788	0
468.502	4	Aircraft1_90%_46.jpg	0	0.9	468.502	472.256	471.187	0	468.502	472.256	471.187	0
472.506	4	Aircraft2_90%_40.jpg	1	0.9	472.506	476.253	473.507	1	472.506	476.253	473.507	1
476.503	4	rest.jpg	NaN	NaN	476.503	480.25	480.503	NaN	476.503	480.25	480.503	NaN
480.484	4	rest.jpg	NaN	NaN	480.484	484.234	484.484	NaN	480.484	484.234	484.484	NaN
484.468	4	rest.jpg	NaN	NaN	484.468	488.214	488.468	NaN	484.468	488.214	488.468	NaN
488.462	4	Aircraft1_70%_36.jpg	0	0.75	488.462	492.21	490.253	0	488.462	492.21	490.253	0
492.471	4	Aircraft1_70%_35.jpg	0	0.75	492.471	496.221	493.778	0	492.471	496.221	493.778	0
496.478	4	Aircraft2_70%_3.jpg	1	0.75	496.478	500.225	497.779	1	496.478	500.225	497.779	1
500.475	4	Aircraft1_70%_5.jpg	0	0.75	500.475	504.229	502.127	0	500.475	504.229	502.127	0
504.488	4	Aircraft1_70%_48.jpg	0	0.75	504.488	508.235	505.455	0	504.488	508.235	505.455	0
508.5	4	rest.jpg	NaN	NaN	508.5	512.25	512.5	NaN	508.5	512.25	512.5	NaN
512.483	4	rest.jpg	NaN	NaN	512.483	516.232	516.483	NaN	512.483	516.232	516.483	NaN
516.466	4	rest.jpg	NaN	NaN	516.466	520.213	520.466	NaN	516.466	520.213	520.466	NaN
520.475	4	Aircraft2_10%_18.jpg	1	0.1	520.475	524.224	521.595	1	520.475	524.224	521.595	1
524.473	4	Aircraft1_10%_29.jpg	0	0.1	524.473	528.222	525.404	0	524.473	528.222	525.404	0
528.476	4	Aircraft2_10%_1.jpg	1	0.1	528.476	532.223	529.51	1	528.476	532.223	529.51	1
532.474	4	Aircraft1_10%_26.jpg	0	0.1	532.474	536.227	533.389	0	532.474	536.227	533.389	0
536.49	4	Aircraft2_10%_34.jpg	1	0.1	536.49	540.238	537.447	1	536.49	540.238	537.447	1
540.488	4	rest.jpg	NaN	NaN	540.488	544.235	544.488	NaN	540.488	544.235	544.488	NaN
544.482	4	rest.jpg	NaN	NaN	544.482	548.231	548.482	NaN	544.482	548.231	548.482	NaN
548.476	4	rest.jpg	NaN	NaN	548.476	552.225	552.476	NaN	548.476	552.225	552.476	NaN
552.49	4	Aircraft2_90%_30.jpg	1	0.9	552.49	556.237	553.995	1	552.49	556.237	553.995	1
556.498	4	Aircraft2_90%_27.jpg	1	0.9	556.498	560.247	559.537	1	556.498	560.247	559.537	1
560.497	4	Aircraft2_90%_50.jpg	1	0.9	560.497	564.244	563.849	1	560.497	564.244	563.849	1
564.507	4	Aircraft2_90%_29.jpg	1	0.9	564.507	568.254	567.696	1	564.507	568.254	567.696	1
568.503	4	Aircraft1_90%_6.jpg	0	0.9	568.503	572.251	571.854	0	568.503	572.251	571.854	0
572.502	4	rest.jpg	NaN	NaN	572.502	576.252	576.502	NaN	572.502	576.252	576.502	NaN
576.496	4	rest.jpg	NaN	NaN	576.496	580.245	580.496	NaN	576.496	580.245	580.496	NaN
580.479	4	rest.jpg	NaN	NaN	580.479	584.229	584.479	NaN	580.479	584.229	584.479	NaN
584.481	4	Aircraft2_70%_17.jpg	1	0.75	584.481	588.235	585.538	1	584.481	588.235	585.538	1
588.489	4	Aircraft2_70%_11.jpg	1	0.75	588.489	592.239	590.956	1	588.489	592.239	590.956	1
592.501	4	Aircraft1_70%_20.jpg	0	0.75	592.501	596.249	593.7	0	592.501	596.249	593.7	0
596.497	4	Aircraft2_70%_47.jpg	1	0.75	596.497	600.251	598.746	1	596.497	600.251	598.746	1
600.499	4	Aircraft2_70%_45.jpg	1	0.75	600.499	604.247	603.746	1	600.499	604.247	603.746	1
604.504	4	rest.jpg	NaN	NaN	604.504	608.253	608.504	NaN	604.504	608.253	608.504	NaN
608.487	4	rest.jpg	NaN	NaN	608.487	612.235	612.487	NaN	608.487	612.235	612.487	NaN
612.485	4	rest.jpg	NaN	NaN	612.485	616.239	616.485	NaN	612.485	616.239	616.485	NaN
616.49	4	Aircraft1_10%_32.jpg	0	0.1	616.49	620.237	618.083	0	616.49	620.237	618.083	0
620.496	4	Aircraft1_10%_49.jpg	0	0.1	620.496	624.248	621.276	0	620.496	624.248	621.276	0
624.499	4	Aircraft2_10%_22.jpg	1	0.1	624.499	628.246	625.574	1	624.499	628.246	625.574	1
628.497	4	Aircraft1_10%_34.jpg	0	0.1	628.497	632.244	629.407	0	628.497	632.244	629.407	0
632.51	4	Aircraft1_10%_14.jpg	0	0.1	632.51	636.263	633.58	0	632.51	636.263	633.58	0
636.526	4	rest.jpg	NaN	NaN	636.526	640.275	640.526	NaN	636.526	640.275	640.526	NaN
640.523	4	rest.jpg	NaN	NaN	640.523	644.272	644.523	NaN	640.523	644.272	644.523	NaN
644.509	4	rest.jpg	NaN	NaN	644.509	648.257	648.509	NaN	644.509	648.257	648.509	NaN
648.51	4	Aircraft1_90%_1.jpg	0	0.9	648.51	652.262	651.057	0	648.51	652.262	651.057	0
652.527	4	Aircraft1_90%_47.jpg	0	0.9	652.527	656.274	654.863	0	652.527	656.274	654.863	0
656.523	4	Aircraft1_90%_40.jpg	0	0.9	656.523	660.272	659.719	0	656.523	660.272	659.719	0
660.534	4	Aircraft1_90%_27.jpg	0	0.9	660.534	664.283	661.834	0	660.534	664.283	661.834	0
664.532	4	Aircraft2_90%_35.jpg	1	0.9	664.532	668.278	666.977	1	664.532	668.278	666.977	1
668.541	4	rest.jpg	NaN	NaN	668.541	672.288	672.541	NaN	668.541	672.288	672.541	NaN
672.526	4	rest.jpg	NaN	NaN	672.526	676.273	676.526	NaN	672.526	676.273	676.526	NaN
676.514	4	rest.jpg	NaN	NaN	676.514	680.263	680.514	NaN	676.514	680.263	680.514	NaN
680.52	4	Aircraft2_70%_23.jpg	1	0.75	680.52	684.273	681.513	1	680.52	684.273	681.513	1
684.535	4	Aircraft1_70%_28.jpg	0	0.75	684.535	688.289	686.961	0	684.535	688.289	686.961	0
688.554	4	Aircraft2_70%_13.jpg	1	0.75	688.554	692.307	690.369	1	688.554	692.307	690.369	1
692.573	4	Aircraft1_70%_45.jpg	0	0.75	692.573	696.32	694.535	0	692.573	696.32	694.535	0
696.575	4	Aircraft1_70%_37.jpg	0	0.75	696.575	700.322	698.475	0	696.575	700.322	698.475	0
700.572	4	rest.jpg	NaN	NaN	700.572	704.326	704.572	NaN	700.572	704.326	704.572	NaN
704.563	4	rest.jpg	NaN	NaN	704.563	708.311	708.563	NaN	704.563	708.311	708.563	NaN
708.547	4	rest.jpg	NaN	NaN	708.547	712.294	712.547	NaN	708.547	712.294	712.547	NaN
712.555	4	Aircraft1_10%_25.jpg	0	0.1	712.555	716.304	713.363	0	712.555	716.304	713.363	0
716.556	4	Aircraft2_10%_49.jpg	1	0.1	716.556	720.31	717.373	1	716.556	720.31	717.373	1
720.561	4	Aircraft2_10%_10.jpg	1	0.1	720.561	724.314	721.555	1	720.561	724.314	721.555	1
724.565	4	Aircraft2_10%_12.jpg	1	0.1	724.565	728.312	725.297	1	724.565	728.312	725.297	1
728.562	4	Aircraft2_10%_7.jpg	1	0.1	728.562	732.311	729.385	1	728.562	732.311	729.385	1
732.57	4	rest.jpg	NaN	NaN	732.57	736.324	736.57	NaN	732.57	736.324	736.57	NaN
736.569	4	rest.jpg	NaN	NaN	736.569	740.316	740.569	NaN	736.569	740.316	740.569	NaN
740.548	4	rest.jpg	NaN	NaN	740.548	744.295	744.548	NaN	740.548	744.295	744.548	NaN
744.543	4	Aircraft2_90%_17.jpg	1	0.9	744.543	748.293	747.167	1	744.543	748.293	747.167	1
748.553	4	Aircraft2_90%_11.jpg	1	0.9	748.553	752.307	750.002	1	748.553	752.307	750.002	1
752.572	4	Aircraft1_90%_20.jpg	0	0.9	752.572	756.325	753.774	0	752.572	756.325	753.774	0
756.593	4	Aircraft2_90%_47.jpg	1	0.9	756.593	760.34	757.677	1	756.593	760.34	757.677	1
760.588	4	Aircraft2_90%_45.jpg	1	0.9	760.588	764.335	761.548	1	760.588	764.335	761.548	1
764.603	4	rest.jpg	NaN	NaN	764.603	768.351	768.603	NaN	764.603	768.351	768.603	NaN
768.588	4	rest.jpg	NaN	NaN	768.588	772.335	772.588	NaN	768.588	772.335	772.588	NaN
772.569	4	rest.jpg	NaN	NaN	772.569	776.32	776.569	NaN	772.569	776.32	776.569	NaN
776.568	4	Aircraft1_70%_38.jpg	0	0.75	776.568	780.32	777.749	0	776.568	780.32	777.749	0
780.568	4	Aircraft2_70%_21.jpg	1	0.75	780.568	784.321	784.158	1	780.568	784.321	784.158	1
784.582	4	Aircraft1_70%_16.jpg	0	0.75	784.582	788.329	786.441	0	784.582	788.329	786.441	0
788.579	4	Aircraft1_70%_46.jpg	0	0.75	788.579	792.328	791.403	0	788.579	792.328	791.403	0
792.59	4	Aircraft2_70%_40.jpg	1	0.75	792.59	796.345	793.922	1	792.59	796.345	793.922	1
796.61	4	rest.jpg	NaN	NaN	796.61	800.365	800.61	NaN	796.61	800.365	800.61	NaN
800.599	4	rest.jpg	NaN	NaN	800.599	804.352	804.599	NaN	800.599	804.352	804.599	NaN
804.586	4	rest.jpg	NaN	NaN	804.586	808.333	808.586	NaN	804.586	808.333	808.586	NaN
808.583	4	Aircraft1_10%_3.jpg	0	0.1	808.583	812.331	809.523	0	808.583	812.331	809.523	0
812.598	4	Aircraft2_10%_28.jpg	1	0.1	812.598	816.345	813.533	1	812.598	816.345	813.533	1
816.594	4	Aircraft1_10%_24.jpg	0	0.1	816.594	820.341	817.759	0	816.594	820.341	817.759	0
820.609	4	Aircraft2_10%_39.jpg	1	0.1	820.609	824.363	821.518	1	820.609	824.363	821.518	1
824.616	4	Aircraft2_10%_8.jpg	1	0.1	824.616	828.369	825.779	1	824.616	828.369	825.779	1
828.623	4	rest.jpg	NaN	NaN	828.623	832.373	832.623	NaN	828.623	832.373	832.623	NaN
832.622	4	rest.jpg	NaN	NaN	832.622	836.374	836.622	NaN	832.622	836.374	836.622	NaN
836.609	4	rest.jpg	NaN	NaN	836.609	840.358	840.609	NaN	836.609	840.358	840.609	NaN
840.607	4	Aircraft1_90%_36.jpg	0	0.9	840.607	844.354	843.117	0	840.607	844.354	843.117	0
844.603	4	Aircraft1_90%_35.jpg	0	0.9	844.603	848.35	846.095	0	844.603	848.35	846.095	0
848.606	4	Aircraft2_90%_3.jpg	1	0.9	848.606	852.353	849.606	1	848.606	852.353	849.606	1
852.6	4	Aircraft1_90%_5.jpg	0	0.9	852.6	856.349	855.434	0	852.6	856.349	855.434	0
856.61	4	Aircraft1_90%_48.jpg	0	0.9	856.61	860.363	859.807	0	856.61	860.363	859.807	0
860.628	4	rest.jpg	NaN	NaN	860.628	864.377	864.628	NaN	860.628	864.377	864.628	NaN
864.613	4	rest.jpg	NaN	NaN	864.613	868.36	868.613	NaN	864.613	868.36	868.613	NaN
868.594	4	rest.jpg	NaN	NaN	868.594	872.341	872.594	NaN	868.594	872.341	872.594	NaN
872.603	4	Aircraft2_70%_30.jpg	1	0.75	872.603	876.352	873.734	1	872.603	876.352	873.734	1
876.601	4	Aircraft2_70%_27.jpg	1	0.75	876.601	880.355	877.571	1	876.601	880.355	877.571	1
880.614	4	Aircraft2_70%_50.jpg	1	0.75	880.614	884.365	882.304	1	880.614	884.365	882.304	1
884.616	4	Aircraft2_70%_29.jpg	1	0.75	884.616	888.362	885.833	1	884.616	888.362	885.833	1
888.621	4	Aircraft1_70%_6.jpg	0	0.75	888.621	892.368	890.707	0	888.621	892.368	890.707	0
892.619	4	rest.jpg	NaN	NaN	892.619	896.371	896.619	NaN	892.619	896.371	896.619	NaN
896.616	4	rest.jpg	NaN	NaN	896.616	900.365	900.616	NaN	896.616	900.365	900.616	NaN
900.606	4	rest.jpg	NaN	NaN	900.606	904.358	904.606	NaN	900.606	904.358	904.606	NaN
904.618	4	Aircraft2_10%_14.jpg	1	0.1	904.618	908.365	905.676	1	904.618	908.365	905.676	1
908.63	4	Aircraft2_10%_5.jpg	1	0.1	908.63	912.379	909.642	1	908.63	912.379	909.642	1
912.629	4	Aircraft2_10%_15.jpg	1	0.1	912.629	916.376	913.279	1	912.629	916.376	913.279	1
916.64	4	Aircraft2_10%_19.jpg	1	0.1	916.64	920.387	917.272	1	916.64	920.387	917.272	1
920.639	4	Aircraft1_10%_31.jpg	0	0.1	920.639	924.385	921.857	0	920.639	924.385	921.857	0
924.633	4	rest.jpg	NaN	NaN	924.633	928.38	928.633	NaN	924.633	928.38	928.633	NaN
928.623	4	rest.jpg	NaN	NaN	928.623	932.373	932.623	NaN	928.623	932.373	932.623	NaN
932.617	4	rest.jpg	NaN	NaN	932.617	936.37	936.617	NaN	932.617	936.37	936.617	NaN
936.624	4	Aircraft1_90%_2.jpg	0	0.9	936.624	940.376	939.938	0	936.624	940.376	939.938	0
940.627	4	Aircraft1_90%_39.jpg	0	0.9	940.627	944.38	942.333	0	940.627	944.38	942.333	0
944.629	4	Aircraft2_90%_26.jpg	1	0.9	944.629	948.384	945.76	1	944.629	948.384	945.76	1
948.648	4	Aircraft1_90%_15.jpg	0	0.9	948.648	952.4	949.98	0	948.648	952.4	949.98	0
952.664	4	Aircraft2_90%_16.jpg	1	0.9	952.664	956.412	954.338	1	952.664	956.412	954.338	1
956.662	4	rest.jpg	NaN	NaN	956.662	960.415	960.662	NaN	956.662	960.415	960.662	NaN
960.66	4	rest.jpg	NaN	NaN	960.66	964.414	964.66	NaN	960.66	964.414	964.66	NaN
964.648	4	rest.jpg	NaN	NaN	964.648	968.398	968.648	NaN	964.648	968.398	968.648	NaN
968.66	4	Aircraft1_70%_1.jpg	0	0.75	968.66	972.412	969.937	0	968.66	972.412	969.937	0
972.677	4	Aircraft1_70%_47.jpg	0	0.75	972.677	976.424	973.493	0	972.677	976.424	973.493	0
976.674	4	Aircraft1_70%_40.jpg	0	0.75	976.674	980.426	977.536	0	976.674	980.426	977.536	0
980.687	4	Aircraft1_70%_27.jpg	0	0.75	980.687	984.436	983.165	0	980.687	984.436	983.165	0
984.703	4	Aircraft2_70%_35.jpg	1	0.75	984.703	988.457	986	1	984.703	988.457	986	1
988.707	4	rest.jpg	NaN	NaN	988.707	992.46	992.707	NaN	988.707	992.46	992.707	NaN
992.704	4	rest.jpg	NaN	NaN	992.704	996.45	996.704	NaN	992.704	996.45	996.704	NaN
996.691	4	rest.jpg	NaN	NaN	996.691	1000.439	1000.691	NaN	996.691	1000.439	1000.691	NaN
