onset	duration	stim_file	stim_lable	levelOfOcclusion	stim_started	stim_stopped	key_time	key_fix
40	4	Aircraft1_10%_2.jpg	0	0.1	40	43.733	41.691	0
44.016	4	Aircraft1_10%_39.jpg	0	0.1	44.016	47.748	46.018	0
48.018	4	Aircraft2_10%_26.jpg	1	0.1	48.018	51.751	49.205	1
52.041	4	Aircraft1_10%_15.jpg	0	0.1	52.041	55.774	53.291	0
56.07	4	Aircraft2_10%_16.jpg	1	0.1	56.07	59.8	56.846	1
60.094	4	rest.jpg	NaN	NaN	60.094	63.824	64.094	NaN
64.074	4	rest.jpg	NaN	NaN	64.074	67.811	68.074	NaN
68.063	4	rest.jpg	NaN	NaN	68.063	71.795	72.063	NaN
72.092	4	Aircraft2_90%_14.jpg	1	0.9	72.092	75.83	74.363	1
76.097	4	Aircraft2_90%_5.jpg	1	0.9	76.097	79.827	80.097	1
80.116	4	Aircraft2_90%_15.jpg	1	0.9	80.116	83.846	80.117	1
84.116	4	Aircraft2_90%_19.jpg	1	0.9	84.116	87.846	86.245	1
88.117	4	Aircraft1_90%_31.jpg	0	0.9	88.117	91.852	90.52	0
92.137	4	rest.jpg	NaN	NaN	92.137	95.867	96.137	NaN
96.103	4	rest.jpg	NaN	NaN	96.103	99.839	100.103	NaN
100.079	4	rest.jpg	NaN	NaN	100.079	103.81	104.079	NaN
104.104	4	Aircraft2_70%_4.jpg	1	0.75	104.104	107.84	105.065	1
108.128	4	Aircraft1_70%_43.jpg	0	0.75	108.128	111.864	109.881	0
112.161	4	Aircraft1_70%_9.jpg	0	0.75	112.161	115.891	114.094	0
116.166	4	Aircraft1_70%_11.jpg	0	0.75	116.166	119.904	119.247	0
120.179	4	Aircraft1_70%_50.jpg	0	0.75	120.179	123.914	122.709	0
124.205	4	rest.jpg	NaN	NaN	124.205	127.938	128.205	NaN
128.176	4	rest.jpg	NaN	NaN	128.176	131.911	132.176	NaN
132.166	4	rest.jpg	NaN	NaN	132.166	135.896	136.166	NaN
136.168	4	Aircraft1_10%_36.jpg	0	0.1	136.168	139.903	137.332	0
140.176	4	Aircraft1_10%_35.jpg	0	0.1	140.176	143.905	141.529	0
144.177	4	Aircraft2_10%_3.jpg	1	0.1	144.177	147.909	145.079	1
148.204	4	Aircraft1_10%_5.jpg	0	0.1	148.204	151.936	149.331	0
152.213	4	Aircraft1_10%_48.jpg	0	0.1	152.213	155.946	153.282	0
156.233	4	rest.jpg	NaN	NaN	156.233	159.965	160.233	NaN
160.202	4	rest.jpg	NaN	NaN	160.202	163.932	164.202	NaN
164.167	4	rest.jpg	NaN	NaN	164.167	167.903	168.167	NaN
168.194	4	Aircraft1_90%_3.jpg	0	0.9	168.194	171.924	169.409	0
172.211	4	Aircraft2_90%_28.jpg	1	0.9	172.211	175.941	173.943	1
176.209	4	Aircraft1_90%_24.jpg	0	0.9	176.209	179.938	178.124	0
180.204	4	Aircraft2_90%_39.jpg	1	0.9	180.204	183.934	182.08	1
184.204	4	Aircraft2_90%_8.jpg	1	0.9	184.204	187.934	187.229	1
188.219	4	rest.jpg	NaN	NaN	188.219	191.949	192.219	NaN
192.2	4	rest.jpg	NaN	NaN	192.2	195.932	196.2	NaN
196.186	4	rest.jpg	NaN	NaN	196.186	199.924	200.186	NaN
200.221	4	Aircraft2_70%_18.jpg	1	0.75	200.221	203.951	201.84	1
204.225	4	Aircraft1_70%_29.jpg	0	0.75	204.225	207.955	207.076	0
208.231	4	Aircraft2_70%_1.jpg	1	0.75	208.231	211.968	210.135	1
212.254	4	Aircraft1_70%_26.jpg	0	0.75	212.254	215.983	213.116	0
216.258	4	Aircraft2_70%_34.jpg	1	0.75	216.258	219.99	218.383	1
220.279	4	rest.jpg	NaN	NaN	220.279	224.017	224.279	NaN
224.249	4	rest.jpg	NaN	NaN	224.249	227.979	228.249	NaN
228.227	4	rest.jpg	NaN	NaN	228.227	231.957	232.227	NaN
232.247	4	Aircraft2_10%_17.jpg	1	0.1	232.247	235.977	233.878	1
236.252	4	Aircraft2_10%_11.jpg	1	0.1	236.252	239.984	238.041	1
240.274	4	Aircraft1_10%_20.jpg	0	0.1	240.274	244.006	241.189	0
244.283	4	Aircraft2_10%_47.jpg	1	0.1	244.283	248.013	246.006	1
248.302	4	Aircraft2_10%_45.jpg	1	0.1	248.302	252.036	250.078	1
252.322	4	rest.jpg	NaN	NaN	252.322	256.052	256.322	NaN
256.302	4	rest.jpg	NaN	NaN	256.302	260.037	260.302	NaN
260.271	4	rest.jpg	NaN	NaN	260.271	264.009	264.271	NaN
264.277	4	Aircraft1_90%_25.jpg	0	0.9	264.277	268.009	265.492	0
268.279	4	Aircraft2_90%_49.jpg	1	0.9	268.279	272.011	271.055	1
272.298	4	Aircraft2_90%_10.jpg	1	0.9	272.298	276.03	275.708	1
276.315	4	Aircraft2_90%_12.jpg	1	0.9	276.315	280.051	279.612	1
280.321	4	Aircraft2_90%_7.jpg	1	0.9	280.321	284.056	283.528	1
284.337	4	rest.jpg	NaN	NaN	284.337	288.071	288.337	NaN
288.316	4	rest.jpg	NaN	NaN	288.316	292.053	292.316	NaN
292.301	4	rest.jpg	NaN	NaN	292.301	296.032	296.301	NaN
296.318	4	Aircraft1_70%_32.jpg	0	0.75	296.318	300.05	297.615	0
300.333	4	Aircraft1_70%_49.jpg	0	0.75	300.333	304.063	302.13	0
304.331	4	Aircraft2_70%_22.jpg	1	0.75	304.331	308.061	305.996	1
308.352	4	Aircraft1_70%_34.jpg	0	0.75	308.352	312.087	309.209	0
312.376	4	Aircraft1_70%_14.jpg	0	0.75	312.376	316.116	313.945	0
316.404	4	rest.jpg	NaN	NaN	316.404	320.134	320.404	NaN
320.385	4	rest.jpg	NaN	NaN	320.385	324.117	324.385	NaN
324.364	4	rest.jpg	NaN	NaN	324.364	328.096	328.364	NaN
328.371	4	Aircraft1_10%_1.jpg	0	0.1	328.371	332.102	329.173	0
332.389	4	Aircraft1_10%_47.jpg	0	0.1	332.389	336.125	333.925	0
336.4	4	Aircraft1_10%_40.jpg	0	0.1	336.4	340.13	337.438	0
340.424	4	Aircraft1_10%_27.jpg	0	0.1	340.424	344.154	341.255	0
344.424	4	Aircraft2_10%_35.jpg	1	0.1	344.424	348.154	345.19	1
348.44	4	rest.jpg	NaN	NaN	348.44	352.172	352.44	NaN
352.406	4	rest.jpg	NaN	NaN	352.406	356.136	356.406	NaN
356.384	4	rest.jpg	NaN	NaN	356.384	360.116	360.384	NaN
360.385	4	Aircraft1_90%_32.jpg	0	0.9	360.385	364.118	362.011	0
364.398	4	Aircraft1_90%_49.jpg	0	0.9	364.398	368.131	365.843	0
368.415	4	Aircraft2_90%_22.jpg	1	0.9	368.415	372.151	370.293	1
372.436	4	Aircraft1_90%_34.jpg	0	0.9	372.436	376.169	373.324	0
376.456	4	Aircraft1_90%_14.jpg	0	0.9	376.456	380.192	378.15	0
380.462	4	rest.jpg	NaN	NaN	380.462	384.194	384.462	NaN
384.439	4	rest.jpg	NaN	NaN	384.439	388.171	388.439	NaN
388.42	4	rest.jpg	NaN	NaN	388.42	392.152	392.42	NaN
392.439	4	Aircraft2_70%_24.jpg	1	0.75	392.439	396.169	393.695	1
396.452	4	Aircraft2_70%_2.jpg	1	0.75	396.452	400.182	398.83	1
400.469	4	Aircraft2_70%_43.jpg	1	0.75	400.469	404.199	403.008	1
404.485	4	Aircraft2_70%_46.jpg	1	0.75	404.485	408.22	405.869	1
408.493	4	Aircraft1_70%_42.jpg	0	0.75	408.493	412.228	409.052	0
412.498	4	rest.jpg	NaN	NaN	412.498	416.23	416.498	NaN
416.476	4	rest.jpg	NaN	NaN	416.476	420.206	420.476	NaN
420.455	4	rest.jpg	NaN	NaN	420.455	424.187	424.455	NaN
424.482	4	Aircraft2_10%_30.jpg	1	0.1	424.482	428.212	425.516	1
428.481	4	Aircraft2_10%_27.jpg	1	0.1	428.481	432.214	429.304	1
432.505	4	Aircraft2_10%_50.jpg	1	0.1	432.505	436.241	433.787	1
436.525	4	Aircraft2_10%_29.jpg	1	0.1	436.525	440.261	437.251	1
440.55	4	Aircraft1_10%_6.jpg	0	0.1	440.55	444.285	441.108	0
444.555	4	rest.jpg	NaN	NaN	444.555	448.287	448.555	NaN
448.537	4	rest.jpg	NaN	NaN	448.537	452.267	452.537	NaN
452.516	4	rest.jpg	NaN	NaN	452.516	456.251	456.516	NaN
456.517	4	Aircraft2_90%_18.jpg	1	0.9	456.517	460.25	457.954	1
460.536	4	Aircraft1_90%_29.jpg	0	0.9	460.536	464.265	462.983	0
464.53	4	Aircraft2_90%_1.jpg	1	0.9	464.53	468.263	467.715	1
468.546	4	Aircraft1_90%_26.jpg	0	0.9	468.546	472.278	469.641	0
472.564	4	Aircraft2_90%_34.jpg	1	0.9	472.564	476.294	474.726	1
476.583	4	rest.jpg	NaN	NaN	476.583	480.318	480.583	NaN
480.552	4	rest.jpg	NaN	NaN	480.552	484.282	484.552	NaN
484.533	4	rest.jpg	NaN	NaN	484.533	488.263	488.533	NaN
488.549	4	Aircraft1_70%_17.jpg	0	0.75	488.549	492.279	489.851	0
492.563	4	Aircraft2_70%_42.jpg	1	0.75	492.563	496.298	493.415	1
496.584	4	Aircraft2_70%_44.jpg	1	0.75	496.584	500.318	497.947	1
500.589	4	Aircraft1_70%_10.jpg	0	0.75	500.589	504.325	501.603	0
504.617	4	Aircraft2_70%_25.jpg	1	0.75	504.617	508.347	505.438	1
508.634	4	rest.jpg	NaN	NaN	508.634	512.367	512.634	NaN
512.615	4	rest.jpg	NaN	NaN	512.615	516.347	516.615	NaN
516.582	4	rest.jpg	NaN	NaN	516.582	520.312	520.582	NaN
520.593	4	Aircraft1_10%_38.jpg	0	0.1	520.593	524.325	521.48	0
524.615	4	Aircraft2_10%_21.jpg	1	0.1	524.615	528.345	525.631	1
528.638	4	Aircraft1_10%_16.jpg	0	0.1	528.638	532.37	530.136	0
532.662	4	Aircraft1_10%_46.jpg	0	0.1	532.662	536.391	533.866	0
536.66	4	Aircraft2_10%_40.jpg	1	0.1	536.66	540.39	538.307	1
540.658	4	rest.jpg	NaN	NaN	540.658	544.394	544.658	NaN
544.635	4	rest.jpg	NaN	NaN	544.635	548.365	548.635	NaN
548.597	4	rest.jpg	NaN	NaN	548.597	552.327	552.597	NaN
552.61	4	Aircraft2_90%_4.jpg	1	0.9	552.61	556.342	555.622	1
556.609	4	Aircraft1_90%_43.jpg	0	0.9	556.609	560.346	559.759	0
560.612	4	Aircraft1_90%_9.jpg	0	0.9	560.612	564.345	562.312	0
564.612	4	Aircraft1_90%_11.jpg	0	0.9	564.612	568.342	566.631	0
568.609	4	Aircraft1_90%_50.jpg	0	0.9	568.609	572.342	572.609	0
572.627	4	rest.jpg	NaN	NaN	572.627	576.36	576.627	NaN
576.594	4	rest.jpg	NaN	NaN	576.594	580.324	580.594	NaN
580.571	4	rest.jpg	NaN	NaN	580.571	584.301	584.571	NaN
584.572	4	Aircraft1_70%_12.jpg	0	0.75	584.572	588.302	585.683	0
588.59	4	Aircraft2_70%_32.jpg	1	0.75	588.59	592.322	590.583	1
592.59	4	Aircraft2_70%_48.jpg	1	0.75	592.59	596.322	595.01	1
596.612	4	Aircraft1_70%_19.jpg	0	0.75	596.612	600.348	597.157	0
600.639	4	Aircraft1_70%_33.jpg	0	0.75	600.639	604.369	602.897	0
604.656	4	rest.jpg	NaN	NaN	604.656	608.385	608.656	NaN
608.632	4	rest.jpg	NaN	NaN	608.632	612.368	612.632	NaN
612.611	4	rest.jpg	NaN	NaN	612.611	616.341	616.611	NaN
616.614	4	Aircraft2_10%_23.jpg	1	0.1	616.614	620.344	617.578	1
620.614	4	Aircraft1_10%_28.jpg	0	0.1	620.614	624.344	621.643	0
624.638	4	Aircraft2_10%_13.jpg	1	0.1	624.638	628.37	626.087	1
628.658	4	Aircraft1_10%_45.jpg	0	0.1	628.658	632.391	630.021	0
632.684	4	Aircraft1_10%_37.jpg	0	0.1	632.684	636.421	634.091	0
636.704	4	rest.jpg	NaN	NaN	636.704	640.434	640.704	NaN
640.67	4	rest.jpg	NaN	NaN	640.67	644.402	644.67	NaN
644.647	4	rest.jpg	NaN	NaN	644.647	648.378	648.647	NaN
648.661	4	Aircraft2_90%_33.jpg	1	0.9	648.661	652.393	651.144	1
652.661	4	Aircraft2_90%_38.jpg	1	0.9	652.661	656.394	653.828	1
656.661	4	Aircraft1_90%_30.jpg	0	0.9	656.661	660.393	658.477	0
660.672	4	Aircraft1_90%_41.jpg	0	0.9	660.672	664.405	664.174	0
664.673	4	Aircraft1_90%_18.jpg	0	0.9	664.673	668.403	666.093	0
668.673	4	rest.jpg	NaN	NaN	668.673	672.404	672.673	NaN
672.653	4	rest.jpg	NaN	NaN	672.653	676.383	676.653	NaN
676.617	4	rest.jpg	NaN	NaN	676.617	680.348	680.617	NaN
680.632	4	Aircraft2_70%_9.jpg	1	0.75	680.632	684.368	682.481	1
684.636	4	Aircraft2_70%_6.jpg	1	0.75	684.636	688.369	686.035	1
688.643	4	Aircraft1_70%_23.jpg	0	0.75	688.643	692.373	689.746	0
692.658	4	Aircraft1_70%_21.jpg	0	0.75	692.658	696.393	693.676	0
696.665	4	Aircraft2_70%_36.jpg	1	0.75	696.665	700.4	697.493	1
700.672	4	rest.jpg	NaN	NaN	700.672	704.402	704.672	NaN
704.65	4	rest.jpg	NaN	NaN	704.65	708.385	708.65	NaN
708.634	4	rest.jpg	NaN	NaN	708.634	712.372	712.634	NaN
712.667	4	Aircraft2_10%_41.jpg	1	0.1	712.667	716.399	713.925	1
716.686	4	Aircraft1_10%_22.jpg	0	0.1	716.686	720.422	717.386	0
720.705	4	Aircraft1_10%_44.jpg	0	0.1	720.705	724.435	721.533	0
724.725	4	Aircraft1_10%_1.jpg	0	0.1	724.725	728.463	726.407	0
728.746	4	Aircraft2_10%_37.jpg	1	0.1	728.746	732.481	730.542	1
732.765	4	rest.jpg	NaN	NaN	732.765	736.497	736.765	NaN
736.731	4	rest.jpg	NaN	NaN	736.731	740.461	740.731	NaN
740.695	4	rest.jpg	NaN	NaN	740.695	744.425	744.695	NaN
744.692	4	Aircraft2_90%_31.jpg	1	0.9	744.692	748.424	746.032	1
748.706	4	Aircraft1_90%_4.jpg	0	0.9	748.706	752.435	749.394	0
752.701	4	Aircraft2_90%_20.jpg	1	0.9	752.701	756.431	754.324	1
756.714	4	Aircraft1_90%_7.jpg	0	0.9	756.714	760.45	757.597	0
760.733	4	Aircraft1_90%_8.jpg	0	0.9	760.733	764.463	761.877	0
764.737	4	rest.jpg	NaN	NaN	764.737	768.474	768.737	NaN
768.722	4	rest.jpg	NaN	NaN	768.722	772.452	772.722	NaN
772.7	4	rest.jpg	NaN	NaN	772.7	776.437	776.7	NaN
776.728	4	Aircraft2_70%_14.jpg	1	0.75	776.728	780.461	777.847	1
780.751	4	Aircraft2_70%_5.jpg	1	0.75	780.751	784.481	782.113	1
784.757	4	Aircraft2_70%_15.jpg	1	0.75	784.757	788.486	787.23	1
788.768	4	Aircraft2_70%_19.jpg	1	0.75	788.768	792.503	792.021	1
792.778	4	Aircraft1_70%_31.jpg	0	0.75	792.778	796.511	793.339	0
796.798	4	rest.jpg	NaN	NaN	796.798	800.531	800.798	NaN
800.78	4	rest.jpg	NaN	NaN	800.78	804.51	804.78	NaN
804.744	4	rest.jpg	NaN	NaN	804.744	808.476	808.744	NaN
808.749	4	Aircraft2_10%_9.jpg	1	0.1	808.749	812.484	810.076	1
812.768	4	Aircraft2_10%_6.jpg	1	0.1	812.768	816.502	813.932	1
816.777	4	Aircraft1_10%_23.jpg	0	0.1	816.777	820.513	818.41	0
820.806	4	Aircraft1_10%_21.jpg	0	0.1	820.806	824.541	822.246	0
824.829	4	Aircraft2_10%_36.jpg	1	0.1	824.829	828.562	827.118	1
828.848	4	rest.jpg	NaN	NaN	828.848	832.584	832.848	NaN
832.817	4	rest.jpg	NaN	NaN	832.817	836.553	836.817	NaN
836.788	4	rest.jpg	NaN	NaN	836.788	840.521	840.788	NaN
840.788	4	Aircraft2_90%_24.jpg	1	0.9	840.788	844.518	842.582	1
844.785	4	Aircraft2_90%_2.jpg	1	0.9	844.785	848.515	846.044	1
848.798	4	Aircraft2_90%_43.jpg	1	0.9	848.798	852.531	850.607	1
852.814	4	Aircraft2_90%_46.jpg	1	0.9	852.814	856.547	854.866	1
856.813	4	Aircraft1_90%_42.jpg	0	0.9	856.813	860.543	858.08	0
860.825	4	rest.jpg	NaN	NaN	860.825	864.561	864.825	NaN
864.808	4	rest.jpg	NaN	NaN	864.808	868.54	868.808	NaN
868.789	4	rest.jpg	NaN	NaN	868.789	872.519	872.789	NaN
872.793	4	Aircraft1_70%_3.jpg	0	0.75	872.793	876.523	874.425	0
876.796	4	Aircraft2_70%_28.jpg	1	0.75	876.796	880.528	878.301	1
880.814	4	Aircraft1_70%_24.jpg	0	0.75	880.814	884.544	881.677	0
884.819	4	Aircraft2_70%_39.jpg	1	0.75	884.819	888.553	886.132	1
888.826	4	Aircraft2_70%_8.jpg	1	0.75	888.826	892.558	890.46	1
892.838	4	rest.jpg	NaN	NaN	892.838	896.57	896.838	NaN
896.802	4	rest.jpg	NaN	NaN	896.802	900.534	900.802	NaN
900.766	4	rest.jpg	NaN	NaN	900.766	904.498	904.766	NaN
904.769	4	Aircraft1_10%_12.jpg	0	0.1	904.769	908.506	906.378	0
908.78	4	Aircraft2_10%_32.jpg	1	0.1	908.78	912.515	909.873	1
912.807	4	Aircraft2_10%_48.jpg	1	0.1	912.807	916.537	913.876	1
916.826	4	Aircraft1_10%_19.jpg	0	0.1	916.826	920.556	918.227	0
920.844	4	Aircraft1_10%_33.jpg	0	0.1	920.844	924.574	922.231	0
924.844	4	rest.jpg	NaN	NaN	924.844	928.573	928.844	NaN
928.805	4	rest.jpg	NaN	NaN	928.805	932.54	932.805	NaN
932.787	4	rest.jpg	NaN	NaN	932.787	936.52	936.787	NaN
936.787	4	Aircraft1_90%_17.jpg	0	0.9	936.787	940.519	938.113	0
940.785	4	Aircraft2_90%_42.jpg	1	0.9	940.785	944.515	941.862	1
944.796	4	Aircraft2_90%_44.jpg	1	0.9	944.796	948.531	945.481	1
948.813	4	Aircraft1_90%_10.jpg	0	0.9	948.813	952.543	949.619	0
952.81	4	Aircraft2_90%_25.jpg	1	0.9	952.81	956.54	953.536	1
956.81	4	rest.jpg	NaN	NaN	956.81	960.547	960.81	NaN
960.797	4	rest.jpg	NaN	NaN	960.797	964.532	964.797	NaN
964.774	4	rest.jpg	NaN	NaN	964.774	968.506	968.774	NaN
968.792	4	Aircraft1_70%_25.jpg	0	0.75	968.792	972.53	969.405	0
972.796	4	Aircraft2_70%_49.jpg	1	0.75	972.796	976.531	973.612	1
976.8	4	Aircraft2_70%_10.jpg	1	0.75	976.8	980.537	977.572	1
980.81	4	Aircraft2_70%_12.jpg	1	0.75	980.81	984.545	981.75	1
984.818	4	Aircraft2_70%_7.jpg	1	0.75	984.818	988.548	986.271	1
988.834	4	rest.jpg	NaN	NaN	988.834	992.565	992.834	NaN
992.815	4	rest.jpg	NaN	NaN	992.815	996.552	996.815	NaN
996.803	4	rest.jpg	NaN	NaN	996.803	1000.537	1000.803	NaN
