onset	duration	stim_file	stim_lable	levelOfOcclusion	stim_started	stim_stopped	key_time	key_fix	stim_started_1	stim_stopped_1	key_time_1	key_fix_1
40.003	4	Aircraft1_10%_2.jpg	0	0.1	40.003	43.737	41.387	0	40.003	43.737	41.387	0
44.017	4	Aircraft1_10%_39.jpg	0	0.1	44.017	47.751	46.55	0	44.017	47.751	46.55	0
48.015	4	Aircraft2_10%_26.jpg	1	0.1	48.015	51.746	50.729	1	48.015	51.746	50.729	1
52.034	4	Aircraft1_10%_15.jpg	0	0.1	52.034	55.765	53.516	0	52.034	55.765	53.516	0
56.034	4	Aircraft2_10%_16.jpg	1	0.1	56.034	59.77	58.331	1	56.034	59.77	58.331	1
60.033	4	rest.jpg	NaN	NaN	60.033	63.769	64.033	NaN	60.033	63.769	64.033	NaN
64.018	4	rest.jpg	NaN	NaN	64.018	67.752	68.018	NaN	64.018	67.752	68.018	NaN
67.997	4	rest.jpg	NaN	NaN	67.997	71.733	71.997	NaN	67.997	71.733	71.997	NaN
71.995	4	Aircraft2_90%_14.jpg	1	0.9	71.995	75.728	74.442	1	71.995	75.728	74.442	1
76.003	4	Aircraft2_90%_5.jpg	1	0.9	76.003	79.741	77.345	1	76.003	79.741	77.345	1
80.021	4	Aircraft2_90%_15.jpg	1	0.9	80.021	83.76	81.918	1	80.021	83.76	81.918	1
84.036	4	Aircraft2_90%_19.jpg	1	0.9	84.036	87.767	86.712	1	84.036	87.767	86.712	1
88.047	4	Aircraft1_90%_31.jpg	0	0.9	88.047	91.785	90.986	0	88.047	91.785	90.986	0
92.074	4	rest.jpg	NaN	NaN	92.074	95.805	96.074	NaN	92.074	95.805	96.074	NaN
96.059	4	rest.jpg	NaN	NaN	96.059	99.789	100.059	NaN	96.059	99.789	100.059	NaN
100.035	4	rest.jpg	NaN	NaN	100.035	103.772	104.035	NaN	100.035	103.772	104.035	NaN
104.047	4	Aircraft2_70%_4.jpg	1	0.75	104.047	107.782	106.106	1	104.047	107.782	106.106	1
108.047	4	Aircraft1_70%_43.jpg	0	0.75	108.047	111.78	110.199	0	108.047	111.78	110.199	0
112.069	4	Aircraft1_70%_9.jpg	0	0.75	112.069	115.806	114.609	0	112.069	115.806	114.609	0
116.091	4	Aircraft1_70%_11.jpg	0	0.75	116.091	119.821	119.084	0	116.091	119.821	119.084	0
120.109	4	Aircraft1_70%_50.jpg	0	0.75	120.109	123.844	122.375	0	120.109	123.844	122.375	0
124.126	4	rest.jpg	NaN	NaN	124.126	127.859	128.126	NaN	124.126	127.859	128.126	NaN
128.11	4	rest.jpg	NaN	NaN	128.11	131.84	132.11	NaN	128.11	131.84	132.11	NaN
132.075	4	rest.jpg	NaN	NaN	132.075	135.806	136.075	NaN	132.075	135.806	136.075	NaN
136.074	4	Aircraft1_10%_36.jpg	0	0.1	136.074	139.811	138.394	0	136.074	139.811	138.394	0
140.077	4	Aircraft1_10%_35.jpg	0	0.1	140.077	143.813	141.25	0	140.077	143.813	141.25	0
144.098	4	Aircraft2_10%_3.jpg	1	0.1	144.098	147.828	144.911	1	144.098	147.828	144.911	1
148.117	4	Aircraft1_10%_5.jpg	0	0.1	148.117	151.847	148.925	0	148.117	151.847	148.925	0
152.136	4	Aircraft1_10%_48.jpg	0	0.1	152.136	155.871	152.927	0	152.136	155.871	152.927	0
156.155	4	rest.jpg	NaN	NaN	156.155	159.885	160.155	NaN	156.155	159.885	160.155	NaN
160.136	4	rest.jpg	NaN	NaN	160.136	163.868	164.136	NaN	160.136	163.868	164.136	NaN
164.1	4	rest.jpg	NaN	NaN	164.1	167.836	168.1	NaN	164.1	167.836	168.1	NaN
168.101	4	Aircraft1_90%_3.jpg	0	0.9	168.101	171.837	169.723	0	168.101	171.837	169.723	0
172.118	4	Aircraft2_90%_28.jpg	1	0.9	172.118	175.854	175.093	1	172.118	175.854	175.093	1
176.137	4	Aircraft1_90%_24.jpg	0	0.9	176.137	179.867	178.775	0	176.137	179.867	178.775	0
180.152	4	Aircraft2_90%_39.jpg	1	0.9	180.152	183.887	183.02	1	180.152	183.887	183.02	1
184.149	4	Aircraft2_90%_8.jpg	1	0.9	184.149	187.882	186.758	1	184.149	187.882	186.758	1
188.167	4	rest.jpg	NaN	NaN	188.167	191.905	192.167	NaN	188.167	191.905	192.167	NaN
192.156	4	rest.jpg	NaN	NaN	192.156	195.891	196.156	NaN	192.156	195.891	196.156	NaN
196.147	4	rest.jpg	NaN	NaN	196.147	199.879	200.147	NaN	196.147	199.879	200.147	NaN
200.148	4	Aircraft2_70%_18.jpg	1	0.75	200.148	203.883	203.612	1	200.148	203.883	203.612	1
204.153	4	Aircraft1_70%_29.jpg	0	0.75	204.153	207.89	206.698	0	204.153	207.89	206.698	0
208.179	4	Aircraft2_70%_1.jpg	1	0.75	208.179	211.915	211.501	1	208.179	211.915	211.501	1
212.205	4	Aircraft1_70%_26.jpg	0	0.75	212.205	215.935	213.287	0	212.205	215.935	213.287	0
216.202	4	Aircraft2_70%_34.jpg	1	0.75	216.202	219.938	219.052	1	216.202	219.938	219.052	1
220.202	4	rest.jpg	NaN	NaN	220.202	223.932	224.202	NaN	220.202	223.932	224.202	NaN
224.167	4	rest.jpg	NaN	NaN	224.167	227.903	228.167	NaN	224.167	227.903	228.167	NaN
228.136	4	rest.jpg	NaN	NaN	228.136	231.865	232.136	NaN	228.136	231.865	232.136	NaN
232.151	4	Aircraft2_10%_17.jpg	1	0.1	232.151	235.886	233.875	1	232.151	235.886	233.875	1
236.177	4	Aircraft2_10%_11.jpg	1	0.1	236.177	239.908	236.853	1	236.177	239.908	236.853	1
240.178	4	Aircraft1_10%_20.jpg	0	0.1	240.178	243.913	241.074	0	240.178	243.913	241.074	0
244.203	4	Aircraft2_10%_47.jpg	1	0.1	244.203	247.933	244.928	1	244.203	247.933	244.928	1
248.219	4	Aircraft2_10%_45.jpg	1	0.1	248.219	251.948	248.871	1	248.219	251.948	248.871	1
252.235	4	rest.jpg	NaN	NaN	252.235	255.972	256.235	NaN	252.235	255.972	256.235	NaN
256.204	4	rest.jpg	NaN	NaN	256.204	259.937	260.204	NaN	256.204	259.937	260.204	NaN
260.168	4	rest.jpg	NaN	NaN	260.168	263.898	264.168	NaN	260.168	263.898	264.168	NaN
264.183	4	Aircraft1_90%_25.jpg	0	0.9	264.183	267.919	266.987	0	264.183	267.919	266.987	0
268.201	4	Aircraft2_90%_49.jpg	1	0.9	268.201	271.938	271.176	1	268.201	271.938	271.176	1
272.203	4	Aircraft2_90%_10.jpg	1	0.9	272.203	275.934	275.454	1	272.203	275.934	275.454	1
276.217	4	Aircraft2_90%_12.jpg	1	0.9	276.217	279.952	279.474	1	276.217	279.952	279.474	1
280.214	4	Aircraft2_90%_7.jpg	1	0.9	280.214	283.947	282.09	1	280.214	283.947	282.09	1
284.23	4	rest.jpg	NaN	NaN	284.23	287.961	288.23	NaN	284.23	287.961	288.23	NaN
288.21	4	rest.jpg	NaN	NaN	288.21	291.94	292.21	NaN	288.21	291.94	292.21	NaN
292.191	4	rest.jpg	NaN	NaN	292.191	295.923	296.191	NaN	292.191	295.923	296.191	NaN
296.205	4	Aircraft1_70%_32.jpg	0	0.75	296.205	299.941	297.774	0	296.205	299.941	297.774	0
300.209	4	Aircraft1_70%_49.jpg	0	0.75	300.209	303.945	301.322	0	300.209	303.945	301.322	0
304.214	4	Aircraft2_70%_22.jpg	1	0.75	304.214	307.95	307.12	1	304.214	307.95	307.12	1
308.237	4	Aircraft1_70%_34.jpg	0	0.75	308.237	311.97	309.555	0	308.237	311.97	309.555	0
312.247	4	Aircraft1_70%_14.jpg	0	0.75	312.247	315.977	315.042	0	312.247	315.977	315.042	0
316.265	4	rest.jpg	NaN	NaN	316.265	319.995	320.265	NaN	316.265	319.995	320.265	NaN
320.245	4	rest.jpg	NaN	NaN	320.245	323.975	324.245	NaN	320.245	323.975	324.245	NaN
324.22	4	rest.jpg	NaN	NaN	324.22	327.95	328.22	NaN	324.22	327.95	328.22	NaN
328.226	4	Aircraft1_10%_1.jpg	0	0.1	328.226	331.956	329.595	0	328.226	331.956	329.595	0
332.246	4	Aircraft1_10%_47.jpg	0	0.1	332.246	335.981	332.957	0	332.246	335.981	332.957	0
336.279	4	Aircraft1_10%_40.jpg	0	0.1	336.279	340.01	337.654	0	336.279	340.01	337.654	0
340.286	4	Aircraft1_10%_27.jpg	0	0.1	340.286	344.021	341.34	0	340.286	344.021	341.34	0
344.309	4	Aircraft2_10%_35.jpg	1	0.1	344.309	348.039	345.193	1	344.309	348.039	345.193	1
348.326	4	rest.jpg	NaN	NaN	348.326	352.064	352.326	NaN	348.326	352.064	352.326	NaN
352.298	4	rest.jpg	NaN	NaN	352.298	356.033	356.298	NaN	352.298	356.033	356.298	NaN
356.269	4	rest.jpg	NaN	NaN	356.269	359.998	360.269	NaN	356.269	359.998	360.269	NaN
360.268	4	Aircraft1_90%_32.jpg	0	0.9	360.268	364.003	362.183	0	360.268	364.003	362.183	0
364.29	4	Aircraft1_90%_49.jpg	0	0.9	364.29	368.027	366.43	0	364.29	368.027	366.43	0
368.293	4	Aircraft2_90%_22.jpg	1	0.9	368.293	372.023	371.264	1	368.293	372.023	371.264	1
372.305	4	Aircraft1_90%_34.jpg	0	0.9	372.305	376.036	375.291	0	372.305	376.036	375.291	0
376.302	4	Aircraft1_90%_14.jpg	0	0.9	376.302	380.032	377.97	0	376.302	380.032	377.97	0
380.32	4	rest.jpg	NaN	NaN	380.32	384.057	384.32	NaN	380.32	384.057	384.32	NaN
384.304	4	rest.jpg	NaN	NaN	384.304	388.037	388.304	NaN	384.304	388.037	388.304	NaN
388.287	4	rest.jpg	NaN	NaN	388.287	392.023	392.287	NaN	388.287	392.023	392.287	NaN
392.295	4	Aircraft2_70%_24.jpg	1	0.75	392.295	396.031	394.326	1	392.295	396.031	394.326	1
396.311	4	Aircraft2_70%_2.jpg	1	0.75	396.311	400.048	397.294	1	396.311	400.048	397.294	1
400.318	4	Aircraft2_70%_43.jpg	1	0.75	400.318	404.048	401.778	1	400.318	404.048	401.778	1
404.337	4	Aircraft2_70%_46.jpg	1	0.75	404.337	408.067	406.58	1	404.337	408.067	406.58	1
408.338	4	Aircraft1_70%_42.jpg	0	0.75	408.338	412.074	409.907	0	408.338	412.074	409.907	0
412.344	4	rest.jpg	NaN	NaN	412.344	416.079	416.344	NaN	412.344	416.079	416.344	NaN
416.329	4	rest.jpg	NaN	NaN	416.329	420.06	420.329	NaN	416.329	420.06	420.329	NaN
420.294	4	rest.jpg	NaN	NaN	420.294	424.026	424.294	NaN	420.294	424.026	424.294	NaN
424.301	4	Aircraft2_10%_30.jpg	1	0.1	424.301	428.034	425.289	1	424.301	428.034	425.289	1
428.319	4	Aircraft2_10%_27.jpg	1	0.1	428.319	432.048	428.987	1	428.319	432.048	428.987	1
432.338	4	Aircraft2_10%_50.jpg	1	0.1	432.338	436.074	432.799	1	432.338	436.074	432.799	1
436.362	4	Aircraft2_10%_29.jpg	1	0.1	436.362	440.097	436.794	1	436.362	440.097	436.794	1
440.387	4	Aircraft1_10%_6.jpg	0	0.1	440.387	444.117	441.182	0	440.387	444.117	441.182	0
444.402	4	rest.jpg	NaN	NaN	444.402	448.132	448.402	NaN	444.402	448.132	448.402	NaN
448.366	4	rest.jpg	NaN	NaN	448.366	452.099	452.366	NaN	448.366	452.099	452.366	NaN
452.347	4	rest.jpg	NaN	NaN	452.347	456.077	456.347	NaN	452.347	456.077	456.347	NaN
456.344	4	Aircraft2_90%_18.jpg	1	0.9	456.344	460.081	459.688	1	456.344	460.081	459.688	1
460.36	4	Aircraft1_90%_29.jpg	0	0.9	460.36	464.09	462.915	0	460.36	464.09	462.915	0
464.375	4	Aircraft2_90%_1.jpg	1	0.9	464.375	468.104	466.876	1	464.375	468.104	466.876	1
468.368	4	Aircraft1_90%_26.jpg	0	0.9	468.368	472.105	471.082	0	468.368	472.105	471.082	0
472.371	4	Aircraft2_90%_34.jpg	1	0.9	472.371	476.104	474.314	1	472.371	476.104	474.314	1
476.393	4	rest.jpg	NaN	NaN	476.393	480.125	480.393	NaN	476.393	480.125	480.393	NaN
480.372	4	rest.jpg	NaN	NaN	480.372	484.109	484.372	NaN	480.372	484.109	484.372	NaN
484.343	4	rest.jpg	NaN	NaN	484.343	488.073	488.343	NaN	484.343	488.073	488.343	NaN
488.346	4	Aircraft1_70%_17.jpg	0	0.75	488.346	492.082	491.023	0	488.346	492.082	491.023	0
492.354	4	Aircraft2_70%_42.jpg	1	0.75	492.354	496.09	494.55	1	492.354	496.09	494.55	1
496.382	4	Aircraft2_70%_44.jpg	1	0.75	496.382	500.118	498.045	1	496.382	500.118	498.045	1
500.41	4	Aircraft1_70%_10.jpg	0	0.75	500.41	504.144	502.261	0	500.41	504.144	502.261	0
504.415	4	Aircraft2_70%_25.jpg	1	0.75	504.415	508.145	506.055	1	504.415	508.145	506.055	1
508.431	4	rest.jpg	NaN	NaN	508.431	512.161	512.431	NaN	508.431	512.161	512.431	NaN
512.397	4	rest.jpg	NaN	NaN	512.397	516.133	516.397	NaN	512.397	516.133	516.397	NaN
516.367	4	rest.jpg	NaN	NaN	516.367	520.097	520.367	NaN	516.367	520.097	520.367	NaN
520.372	4	Aircraft1_10%_38.jpg	0	0.1	520.372	524.107	521.689	0	520.372	524.107	521.689	0
524.401	4	Aircraft2_10%_21.jpg	1	0.1	524.401	528.131	525.348	1	524.401	528.131	525.348	1
528.426	4	Aircraft1_10%_16.jpg	0	0.1	528.426	532.162	529.311	0	528.426	532.162	529.311	0
532.454	4	Aircraft1_10%_46.jpg	0	0.1	532.454	536.191	533.593	0	532.454	536.191	533.593	0
536.475	4	Aircraft2_10%_40.jpg	1	0.1	536.475	540.204	537.506	1	536.475	540.204	537.506	1
540.472	4	rest.jpg	NaN	NaN	540.472	544.208	544.472	NaN	540.472	544.208	544.472	NaN
544.457	4	rest.jpg	NaN	NaN	544.457	548.187	548.457	NaN	544.457	548.187	548.457	NaN
548.419	4	rest.jpg	NaN	NaN	548.419	552.151	552.419	NaN	548.419	552.151	552.419	NaN
552.428	4	Aircraft2_90%_4.jpg	1	0.9	552.428	556.16	554.506	1	552.428	556.16	554.506	1
556.428	4	Aircraft1_90%_43.jpg	0	0.9	556.428	560.163	558.171	0	556.428	560.163	558.171	0
560.448	4	Aircraft1_90%_9.jpg	0	0.9	560.448	564.178	562.696	0	560.448	564.178	562.696	0
564.445	4	Aircraft1_90%_11.jpg	0	0.9	564.445	568.183	566.581	0	564.445	568.183	566.581	0
568.467	4	Aircraft1_90%_50.jpg	0	0.9	568.467	572.202	570.675	0	568.467	572.202	570.675	0
572.491	4	rest.jpg	NaN	NaN	572.491	576.22	576.491	NaN	572.491	576.22	576.491	NaN
576.453	4	rest.jpg	NaN	NaN	576.453	580.19	580.453	NaN	576.453	580.19	580.453	NaN
580.422	4	rest.jpg	NaN	NaN	580.422	584.157	584.422	NaN	580.422	584.157	584.422	NaN
584.434	4	Aircraft1_70%_12.jpg	0	0.75	584.434	588.164	585.964	0	584.434	588.164	585.964	0
588.437	4	Aircraft2_70%_32.jpg	1	0.75	588.437	592.167	590.5	1	588.437	592.167	590.5	1
592.448	4	Aircraft2_70%_48.jpg	1	0.75	592.448	596.18	594.216	1	592.448	596.18	594.216	1
596.455	4	Aircraft1_70%_19.jpg	0	0.75	596.455	600.19	597.684	0	596.455	600.19	597.684	0
600.482	4	Aircraft1_70%_33.jpg	0	0.75	600.482	604.214	602.367	0	600.482	604.214	602.367	0
604.484	4	rest.jpg	NaN	NaN	604.484	608.221	608.484	NaN	604.484	608.221	608.484	NaN
608.471	4	rest.jpg	NaN	NaN	608.471	612.2	612.471	NaN	608.471	612.2	612.471	NaN
612.432	4	rest.jpg	NaN	NaN	612.432	616.165	616.432	NaN	612.432	616.165	616.432	NaN
616.438	4	Aircraft2_10%_23.jpg	1	0.1	616.438	620.168	617.243	1	616.438	620.168	617.243	1
620.454	4	Aircraft1_10%_28.jpg	0	0.1	620.454	624.187	621.124	0	620.454	624.187	621.124	0
624.461	4	Aircraft2_10%_13.jpg	1	0.1	624.461	628.191	625.12	1	624.461	628.191	625.12	1
628.462	4	Aircraft1_10%_45.jpg	0	0.1	628.462	632.197	629.111	0	628.462	632.197	629.111	0
632.491	4	Aircraft1_10%_37.jpg	0	0.1	632.491	636.221	633.11	0	632.491	636.221	633.11	0
636.507	4	rest.jpg	NaN	NaN	636.507	640.239	640.507	NaN	636.507	640.239	640.507	NaN
640.488	4	rest.jpg	NaN	NaN	640.488	644.22	644.488	NaN	640.488	644.22	644.488	NaN
644.454	4	rest.jpg	NaN	NaN	644.454	648.186	648.454	NaN	644.454	648.186	648.454	NaN
648.471	4	Aircraft2_90%_33.jpg	1	0.9	648.471	652.201	650.34	1	648.471	652.201	650.34	1
652.468	4	Aircraft2_90%_38.jpg	1	0.9	652.468	656.2	654.55	1	652.468	656.2	654.55	1
656.468	4	Aircraft1_90%_30.jpg	0	0.9	656.468	660.203	658.821	0	656.468	660.203	658.821	0
660.482	4	Aircraft1_90%_41.jpg	0	0.9	660.482	664.217	663.168	0	660.482	664.217	663.168	0
664.501	4	Aircraft1_90%_18.jpg	0	0.9	664.501	668.237	665.981	0	664.501	668.237	665.981	0
668.522	4	rest.jpg	NaN	NaN	668.522	672.254	672.522	NaN	668.522	672.254	672.522	NaN
672.503	4	rest.jpg	NaN	NaN	672.503	676.239	676.503	NaN	672.503	676.239	676.503	NaN
676.489	4	rest.jpg	NaN	NaN	676.489	680.224	680.489	NaN	676.489	680.224	680.489	NaN
680.515	4	Aircraft2_70%_9.jpg	1	0.75	680.515	684.246	682.015	1	680.515	684.246	682.015	1
684.528	4	Aircraft2_70%_6.jpg	1	0.75	684.528	688.261	686.144	1	684.528	688.261	686.144	1
688.552	4	Aircraft1_70%_23.jpg	0	0.75	688.552	692.285	690.482	0	688.552	692.285	690.482	0
692.578	4	Aircraft1_70%_21.jpg	0	0.75	692.578	696.31	694.605	0	692.578	696.31	694.605	0
696.582	4	Aircraft2_70%_36.jpg	1	0.75	696.582	700.314	697.815	1	696.582	700.314	697.815	1
700.596	4	rest.jpg	NaN	NaN	700.596	704.332	704.596	NaN	700.596	704.332	704.596	NaN
704.566	4	rest.jpg	NaN	NaN	704.566	708.296	708.566	NaN	704.566	708.296	708.566	NaN
708.53	4	rest.jpg	NaN	NaN	708.53	712.262	712.53	NaN	708.53	712.262	712.53	NaN
712.553	4	Aircraft2_10%_41.jpg	1	0.1	712.553	716.286	713.565	1	712.553	716.286	713.565	1
716.576	4	Aircraft1_10%_22.jpg	0	0.1	716.576	720.306	717.231	0	716.576	720.306	717.231	0
720.594	4	Aircraft1_10%_44.jpg	0	0.1	720.594	724.324	721.414	0	720.594	724.324	721.414	0
724.599	4	Aircraft1_10%_1.jpg	0	0.1	724.599	728.336	725.173	0	724.599	728.336	725.173	0
728.618	4	Aircraft2_10%_37.jpg	1	0.1	728.618	732.35	729.264	1	728.618	732.35	729.264	1
732.633	4	rest.jpg	NaN	NaN	732.633	736.368	736.633	NaN	732.633	736.368	736.633	NaN
736.614	4	rest.jpg	NaN	NaN	736.614	740.35	740.614	NaN	736.614	740.35	740.614	NaN
740.584	4	rest.jpg	NaN	NaN	740.584	744.321	744.584	NaN	740.584	744.321	744.584	NaN
744.588	4	Aircraft2_90%_31.jpg	1	0.9	744.588	748.318	746.954	1	744.588	748.318	746.954	1
748.601	4	Aircraft1_90%_4.jpg	0	0.9	748.601	752.331	750.79	0	748.601	752.331	750.79	0
752.599	4	Aircraft2_90%_20.jpg	1	0.9	752.599	756.334	754.604	1	752.599	756.334	754.604	1
756.617	4	Aircraft1_90%_7.jpg	0	0.9	756.617	760.352	758.549	0	756.617	760.352	758.549	0
760.633	4	Aircraft1_90%_8.jpg	0	0.9	760.633	764.363	763.139	0	760.633	764.363	763.139	0
764.633	4	rest.jpg	NaN	NaN	764.633	768.368	768.633	NaN	764.633	768.368	768.633	NaN
768.618	4	rest.jpg	NaN	NaN	768.618	772.348	772.618	NaN	768.618	772.348	772.618	NaN
772.597	4	rest.jpg	NaN	NaN	772.597	776.329	776.597	NaN	772.597	776.329	776.597	NaN
776.616	4	Aircraft2_70%_14.jpg	1	0.75	776.616	780.353	777.868	1	776.616	780.353	777.868	1
780.639	4	Aircraft2_70%_5.jpg	1	0.75	780.639	784.369	783.201	1	780.639	784.369	783.201	1
784.642	4	Aircraft2_70%_15.jpg	1	0.75	784.642	788.378	787.163	1	784.642	788.378	787.163	1
788.664	4	Aircraft2_70%_19.jpg	1	0.75	788.664	792.401	789.854	1	788.664	792.401	789.854	1
792.672	4	Aircraft1_70%_31.jpg	0	0.75	792.672	796.407	793.655	0	792.672	796.407	793.655	0
796.694	4	rest.jpg	NaN	NaN	796.694	800.424	800.694	NaN	796.694	800.424	800.694	NaN
800.658	4	rest.jpg	NaN	NaN	800.658	804.391	804.658	NaN	800.658	804.391	804.658	NaN
804.625	4	rest.jpg	NaN	NaN	804.625	808.358	808.625	NaN	804.625	808.358	808.625	NaN
808.65	4	Aircraft2_10%_9.jpg	1	0.1	808.65	812.38	809.709	1	808.65	812.38	809.709	1
812.669	4	Aircraft2_10%_6.jpg	1	0.1	812.669	816.405	813.244	1	812.669	816.405	813.244	1
816.679	4	Aircraft1_10%_23.jpg	0	0.1	816.679	820.413	817.356	0	816.679	820.413	817.356	0
820.705	4	Aircraft1_10%_21.jpg	0	0.1	820.705	824.436	821.335	0	820.705	824.436	821.335	0
824.704	4	Aircraft2_10%_36.jpg	1	0.1	824.704	828.44	825.611	1	824.704	828.44	825.611	1
828.721	4	rest.jpg	NaN	NaN	828.721	832.459	832.721	NaN	828.721	832.459	832.721	NaN
832.704	4	rest.jpg	NaN	NaN	832.704	836.439	836.704	NaN	832.704	836.439	836.704	NaN
836.689	4	rest.jpg	NaN	NaN	836.689	840.424	840.689	NaN	836.689	840.424	840.689	NaN
840.691	4	Aircraft2_90%_24.jpg	1	0.9	840.691	844.427	843.329	1	840.691	844.427	843.329	1
844.694	4	Aircraft2_90%_2.jpg	1	0.9	844.694	848.424	847.209	1	844.694	848.424	847.209	1
848.709	4	Aircraft2_90%_43.jpg	1	0.9	848.709	852.441	851.146	1	848.709	852.441	851.146	1
852.718	4	Aircraft2_90%_46.jpg	1	0.9	852.718	856.448	854.354	1	852.718	856.448	854.354	1
856.734	4	Aircraft1_90%_42.jpg	0	0.9	856.734	860.468	858.103	0	856.734	860.468	858.103	0
860.738	4	rest.jpg	NaN	NaN	860.738	864.468	864.738	NaN	860.738	864.468	864.738	NaN
864.712	4	rest.jpg	NaN	NaN	864.712	868.449	868.712	NaN	864.712	868.449	868.712	NaN
868.696	4	rest.jpg	NaN	NaN	868.696	872.431	872.696	NaN	868.696	872.431	872.696	NaN
872.707	4	Aircraft1_70%_3.jpg	0	0.75	872.707	876.44	874.882	0	872.707	876.44	874.882	0
876.725	4	Aircraft2_70%_28.jpg	1	0.75	876.725	880.455	878.458	1	876.725	880.455	878.458	1
880.744	4	Aircraft1_70%_24.jpg	0	0.75	880.744	884.474	883.401	0	880.744	884.474	883.401	0
884.761	4	Aircraft2_70%_39.jpg	1	0.75	884.761	888.494	886.885	1	884.761	888.494	886.885	1
888.767	4	Aircraft2_70%_8.jpg	1	0.75	888.767	892.503	890.911	1	888.767	892.503	890.911	1
892.79	4	rest.jpg	NaN	NaN	892.79	896.519	896.79	NaN	892.79	896.519	896.79	NaN
896.767	4	rest.jpg	NaN	NaN	896.767	900.504	900.767	NaN	896.767	900.504	900.767	NaN
900.753	4	rest.jpg	NaN	NaN	900.753	904.489	904.753	NaN	900.753	904.489	904.753	NaN
904.76	4	Aircraft1_10%_12.jpg	0	0.1	904.76	908.49	905.714	0	904.76	908.49	905.714	0
908.763	4	Aircraft2_10%_32.jpg	1	0.1	908.763	912.494	909.777	1	908.763	912.494	909.777	1
912.769	4	Aircraft2_10%_48.jpg	1	0.1	912.769	916.501	913.683	1	912.769	916.501	913.683	1
916.791	4	Aircraft1_10%_19.jpg	0	0.1	916.791	920.527	917.587	0	916.791	920.527	917.587	0
920.814	4	Aircraft1_10%_33.jpg	0	0.1	920.814	924.549	921.611	0	920.814	924.549	921.611	0
924.836	4	rest.jpg	NaN	NaN	924.836	928.566	928.836	NaN	924.836	928.566	928.836	NaN
928.816	4	rest.jpg	NaN	NaN	928.816	932.545	932.816	NaN	928.816	932.545	932.816	NaN
932.795	4	rest.jpg	NaN	NaN	932.795	936.532	936.795	NaN	932.795	936.532	936.795	NaN
936.797	4	Aircraft1_90%_17.jpg	0	0.9	936.797	940.534	938.991	0	936.797	940.534	938.991	0
940.801	4	Aircraft2_90%_42.jpg	1	0.9	940.801	944.531	943.513	1	940.801	944.531	943.513	1
944.815	4	Aircraft2_90%_44.jpg	1	0.9	944.815	948.55	945.597	1	944.815	948.55	945.597	1
948.831	4	Aircraft1_90%_10.jpg	0	0.9	948.831	952.566	951.133	0	948.831	952.566	951.133	0
952.856	4	Aircraft2_90%_25.jpg	1	0.9	952.856	956.588	954.67	1	952.856	956.588	954.67	1
956.873	4	rest.jpg	NaN	NaN	956.873	960.603	960.873	NaN	956.873	960.603	960.873	NaN
960.837	4	rest.jpg	NaN	NaN	960.837	964.573	964.837	NaN	960.837	964.573	964.837	NaN
964.819	4	rest.jpg	NaN	NaN	964.819	968.548	968.819	NaN	964.819	968.548	968.819	NaN
968.831	4	Aircraft1_70%_25.jpg	0	0.75	968.831	972.563	970.213	0	968.831	972.563	970.213	0
972.824	4	Aircraft2_70%_49.jpg	1	0.75	972.824	976.554	975.347	1	972.824	976.554	975.347	1
976.817	4	Aircraft2_70%_10.jpg	1	0.75	976.817	980.547	979.865	1	976.817	980.547	979.865	1
980.814	4	Aircraft2_70%_12.jpg	1	0.75	980.814	984.544	982.176	1	980.814	984.544	982.176	1
984.83	4	Aircraft2_70%_7.jpg	1	0.75	984.83	988.561	986.848	1	984.83	988.561	986.848	1
988.843	4	rest.jpg	NaN	NaN	988.843	992.573	992.843	NaN	988.843	992.573	992.843	NaN
992.826	4	rest.jpg	NaN	NaN	992.826	996.558	996.826	NaN	992.826	996.558	996.826	NaN
996.803	4	rest.jpg	NaN	NaN	996.803	1000.541	1000.803	NaN	996.803	1000.541	1000.803	NaN
