sub	run	block	trail	oneset	duration	stim_file	stim_lable	level of occlusion	stim_started	stim_stopped	key_time	key_fix
35	1	1	1	40.004	4	Aircraft1_10%_2.jpg	0	0.1	40.004	43.745	41.587	0
35	1	1	2	44.031	4	Aircraft1_10%_39.jpg	0	0.1	44.031	47.765	46.195	0
35	1	1	3	48.035	4	Aircraft2_10%_26.jpg	1	0.1	48.035	51.769	49.912	1
35	1	1	4	52.062	4	Aircraft1_10%_15.jpg	0	0.1	52.062	55.796	55.298	0
35	1	1	5	56.092	4	Aircraft2_10%_16.jpg	1	0.1	56.092	59.825	57.329	1
35	1	1	6	60.097	4	rest.jpg	n/a	n/a	60.097	63.827	64.097	n/a
35	1	1	7	64.08	4	rest.jpg	n/a	n/a	64.08	67.818	68.08	n/a
35	1	1	8	68.062	4	rest.jpg	n/a	n/a	68.062	71.792	72.062	n/a
35	1	2	9	72.079	4	Aircraft2_90%_14.jpg	1	0.9	72.079	75.814	74.104	1
35	1	2	10	76.082	4	Aircraft2_90%_5.jpg	1	0.9	76.082	79.814	78.245	1
35	1	2	11	80.085	4	Aircraft2_90%_15.jpg	1	0.9	80.085	83.818	82.103	1
35	1	2	12	84.085	4	Aircraft2_90%_19.jpg	1	0.9	84.085	87.823	87.69	1
35	1	2	13	88.105	4	Aircraft1_90%_31.jpg	0	0.9	88.105	91.836	92.105	0
35	1	2	14	92.121	4	rest.jpg	n/a	n/a	92.121	95.859	96.121	n/a
35	1	2	15	96.105	4	rest.jpg	n/a	n/a	96.105	99.841	100.105	n/a
35	1	2	16	100.077	4	rest.jpg	n/a	n/a	100.077	103.808	104.077	n/a
35	1	3	17	104.074	4	Aircraft2_70%_4.jpg	1	0.75	104.074	107.809	106.217	1
35	1	3	18	108.08	4	Aircraft1_70%_43.jpg	0	0.75	108.08	111.817	110.522	0
35	1	3	19	112.098	4	Aircraft1_70%_9.jpg	0	0.75	112.098	115.828	115.407	0
35	1	3	20	116.096	4	Aircraft1_70%_11.jpg	0	0.75	116.096	119.828	120.096	0
35	1	3	21	120.099	4	Aircraft1_70%_50.jpg	0	0.75	120.099	123.832	122.261	0
35	1	3	22	124.116	4	rest.jpg	n/a	n/a	124.116	127.851	128.116	n/a
35	1	3	23	128.101	4	rest.jpg	n/a	n/a	128.101	131.837	132.101	n/a
35	1	3	24	132.086	4	rest.jpg	n/a	n/a	132.086	135.822	136.086	n/a
35	1	4	25	136.103	4	Aircraft1_10%_36.jpg	0	0.1	136.103	139.833	137.448	0
35	1	4	26	140.096	4	Aircraft1_10%_35.jpg	0	0.1	140.096	143.831	142.122	0
35	1	4	27	144.099	4	Aircraft2_10%_3.jpg	1	0.1	144.099	147.831	145.609	1
35	1	4	28	148.119	4	Aircraft1_10%_5.jpg	0	0.1	148.119	151.849	149.465	0
35	1	4	29	152.131	4	Aircraft1_10%_48.jpg	0	0.1	152.131	155.861	154.227	0
35	1	4	30	156.128	4	rest.jpg	n/a	n/a	156.128	159.861	160.128	n/a
35	1	4	31	160.098	4	rest.jpg	n/a	n/a	160.098	163.834	164.098	n/a
35	1	4	32	164.082	4	rest.jpg	n/a	n/a	164.082	167.811	168.082	n/a
35	1	5	33	168.097	4	Aircraft1_90%_3.jpg	0	0.9	168.097	171.832	170.362	0
35	1	5	34	172.121	4	Aircraft2_90%_28.jpg	1	0.9	172.121	175.858	175.08	1
35	1	5	35	176.144	4	Aircraft1_90%_24.jpg	0	0.9	176.144	179.882	180.144	0
35	1	5	36	180.165	4	Aircraft2_90%_39.jpg	1	0.9	180.165	183.897	180.342	1
35	1	5	37	184.166	4	Aircraft2_90%_8.jpg	1	0.9	184.166	187.902	186.064	1
35	1	5	38	188.173	4	rest.jpg	n/a	n/a	188.173	191.903	192.173	n/a
35	1	5	39	192.138	4	rest.jpg	n/a	n/a	192.138	195.873	196.138	n/a
35	1	5	40	196.109	4	rest.jpg	n/a	n/a	196.109	199.842	200.109	n/a
35	1	6	41	200.132	4	Aircraft2_70%_18.jpg	1	0.75	200.132	203.868	201.662	1
35	1	6	42	204.142	4	Aircraft1_70%_29.jpg	0	0.75	204.142	207.876	206.069	0
35	1	6	43	208.164	4	Aircraft2_70%_1.jpg	1	0.75	208.164	211.9	210.619	1
35	1	6	44	212.175	4	Aircraft1_70%_26.jpg	0	0.75	212.175	215.91	214.018	0
35	1	6	45	216.188	4	Aircraft2_70%_34.jpg	1	0.75	216.188	219.925	217.182	1
35	1	6	46	220.203	4	rest.jpg	n/a	n/a	220.203	223.935	224.203	n/a
35	1	6	47	224.187	4	rest.jpg	n/a	n/a	224.187	227.917	228.187	n/a
35	1	6	48	228.165	4	rest.jpg	n/a	n/a	228.165	231.895	232.165	n/a
35	1	7	49	232.186	4	Aircraft2_10%_17.jpg	1	0.1	232.186	235.916	233.723	1
35	1	7	50	236.214	4	Aircraft2_10%_11.jpg	1	0.1	236.214	239.944	237.878	1
35	1	7	51	240.22	4	Aircraft1_10%_20.jpg	0	0.1	240.22	243.956	241.739	0
35	1	7	52	244.249	4	Aircraft2_10%_47.jpg	1	0.1	244.249	247.984	245.094	1
35	1	7	53	248.254	4	Aircraft2_10%_45.jpg	1	0.1	248.254	251.984	249.054	1
35	1	7	54	252.255	4	rest.jpg	n/a	n/a	252.255	255.988	256.255	n/a
35	1	7	55	256.238	4	rest.jpg	n/a	n/a	256.238	259.97	260.238	n/a
35	1	7	56	260.205	4	rest.jpg	n/a	n/a	260.205	263.937	264.205	n/a
35	1	8	57	264.221	4	Aircraft1_90%_25.jpg	0	0.9	264.221	267.953	265.793	0
35	1	8	58	268.24	4	Aircraft2_90%_49.jpg	1	0.9	268.24	271.976	271.25	1
35	1	8	59	272.244	4	Aircraft2_90%_10.jpg	1	0.9	272.244	275.98	275.158	1
35	1	8	60	276.259	4	Aircraft2_90%_12.jpg	1	0.9	276.259	279.989	278.078	1
35	1	8	61	280.258	4	Aircraft2_90%_7.jpg	1	0.9	280.258	283.996	281.288	1
35	1	8	62	284.271	4	rest.jpg	n/a	n/a	284.271	288.008	288.271	n/a
35	1	8	63	288.243	4	rest.jpg	n/a	n/a	288.243	291.973	292.243	n/a
35	1	8	64	292.224	4	rest.jpg	n/a	n/a	292.224	295.954	296.224	n/a
35	1	9	65	296.224	4	Aircraft1_70%_32.jpg	0	0.75	296.224	299.96	297.694	0
35	1	9	66	300.251	4	Aircraft1_70%_49.jpg	0	0.75	300.251	303.986	302.096	0
35	1	9	67	304.255	4	Aircraft2_70%_22.jpg	1	0.75	304.255	307.988	305.908	1
35	1	9	68	308.262	4	Aircraft1_70%_34.jpg	0	0.75	308.262	311.992	310.161	0
35	1	9	69	312.266	4	Aircraft1_70%_14.jpg	0	0.75	312.266	315.995	314.124	0
35	1	9	70	316.276	4	rest.jpg	n/a	n/a	316.276	320.008	320.276	n/a
35	1	9	71	320.255	4	rest.jpg	n/a	n/a	320.255	323.988	324.255	n/a
35	1	9	72	324.226	4	rest.jpg	n/a	n/a	324.226	327.956	328.226	n/a
35	1	10	73	328.252	4	Aircraft1_10%_1.jpg	0	0.1	328.252	331.982	329.339	0
35	1	10	74	332.266	4	Aircraft1_10%_47.jpg	0	0.1	332.266	336.002	333.734	0
35	1	10	75	336.293	4	Aircraft1_10%_40.jpg	0	0.1	336.293	340.024	337.343	0
35	1	10	76	340.303	4	Aircraft1_10%_27.jpg	0	0.1	340.303	344.034	341.769	0
35	1	10	77	344.322	4	Aircraft2_10%_35.jpg	1	0.1	344.322	348.057	345.316	1
35	1	10	78	348.327	4	rest.jpg	n/a	n/a	348.327	352.062	352.327	n/a
35	1	10	79	352.296	4	rest.jpg	n/a	n/a	352.296	356.032	356.296	n/a
35	1	10	80	356.279	4	rest.jpg	n/a	n/a	356.279	360.009	360.279	n/a
35	1	11	81	360.269	4	Aircraft1_90%_32.jpg	0	0.9	360.269	364.001	362.521	0
35	1	11	82	364.263	4	Aircraft1_90%_49.jpg	0	0.9	364.263	367.998	367.32	0
35	1	11	83	368.28	4	Aircraft2_90%_22.jpg	1	0.9	368.28	372.02	371	1
35	1	11	84	372.302	4	Aircraft1_90%_34.jpg	0	0.9	372.302	376.032	374.942	0
35	1	11	85	376.293	4	Aircraft1_90%_14.jpg	0	0.9	376.293	380.026	378.11	0
35	1	11	86	380.291	4	rest.jpg	n/a	n/a	380.291	384.02	384.291	n/a
35	1	11	87	384.251	4	rest.jpg	n/a	n/a	384.251	387.987	388.251	n/a
35	1	11	88	388.235	4	rest.jpg	n/a	n/a	388.235	391.971	392.235	n/a
35	1	12	89	392.233	4	Aircraft2_70%_24.jpg	1	0.75	392.233	395.966	394.391	1
35	1	12	90	396.229	4	Aircraft2_70%_2.jpg	1	0.75	396.229	399.962	397.441	1
35	1	12	91	400.246	4	Aircraft2_70%_43.jpg	1	0.75	400.246	403.976	401.245	1
35	1	12	92	404.244	4	Aircraft2_70%_46.jpg	1	0.75	404.244	407.974	405.116	1
35	1	12	93	408.257	4	Aircraft1_70%_42.jpg	0	0.75	408.257	411.987	409.764	0
35	1	12	94	412.268	4	rest.jpg	n/a	n/a	412.268	416.004	416.268	n/a
35	1	12	95	416.252	4	rest.jpg	n/a	n/a	416.252	419.985	420.252	n/a
35	1	12	96	420.218	4	rest.jpg	n/a	n/a	420.218	423.948	424.218	n/a
35	1	13	97	424.238	4	Aircraft2_10%_30.jpg	1	0.1	424.238	427.975	425.283	1
35	1	13	98	428.255	4	Aircraft2_10%_27.jpg	1	0.1	428.255	431.992	429.733	1
35	1	13	99	432.278	4	Aircraft2_10%_50.jpg	1	0.1	432.278	436.01	433.566	1
35	1	13	100	436.277	4	Aircraft2_10%_29.jpg	1	0.1	436.277	440.013	437.394	1
35	1	13	101	440.282	4	Aircraft1_10%_6.jpg	0	0.1	440.282	444.017	441.237	0
35	1	13	102	444.3	4	rest.jpg	n/a	n/a	444.3	448.031	448.3	n/a
35	1	13	103	448.28	4	rest.jpg	n/a	n/a	448.28	452.017	452.28	n/a
35	1	13	104	452.249	4	rest.jpg	n/a	n/a	452.249	455.985	456.249	n/a
35	1	14	105	456.256	4	Aircraft2_90%_18.jpg	1	0.9	456.256	459.986	458.939	1
35	1	14	106	460.254	4	Aircraft1_90%_29.jpg	0	0.9	460.254	463.985	464.254	0
35	1	14	107	464.261	4	Aircraft2_90%_1.jpg	1	0.9	464.261	467.99	465.593	1
35	1	14	108	468.256	4	Aircraft1_90%_26.jpg	0	0.9	468.256	471.992	472.256	0
35	1	14	109	472.281	4	Aircraft2_90%_34.jpg	1	0.9	472.281	476.018	472.501	1
35	1	14	110	476.303	4	rest.jpg	n/a	n/a	476.303	480.033	480.303	n/a
35	1	14	111	480.277	4	rest.jpg	n/a	n/a	480.277	484.013	484.277	n/a
35	1	14	112	484.246	4	rest.jpg	n/a	n/a	484.246	487.976	488.246	n/a
35	1	15	113	488.268	4	Aircraft1_70%_17.jpg	0	0.75	488.268	492.004	489.982	0
35	1	15	114	492.289	4	Aircraft2_70%_42.jpg	1	0.75	492.289	496.022	493.363	1
35	1	15	115	496.295	4	Aircraft2_70%_44.jpg	1	0.75	496.295	500.028	497.202	1
35	1	15	116	500.317	4	Aircraft1_70%_10.jpg	0	0.75	500.317	504.051	502.214	0
35	1	15	117	504.322	4	Aircraft2_70%_25.jpg	1	0.75	504.322	508.059	505.688	1
35	1	15	118	508.327	4	rest.jpg	n/a	n/a	508.327	512.063	512.327	n/a
35	1	15	119	512.311	4	rest.jpg	n/a	n/a	512.311	516.047	516.311	n/a
35	1	15	120	516.28	4	rest.jpg	n/a	n/a	516.28	520.016	520.28	n/a
35	1	16	121	520.306	4	Aircraft1_10%_38.jpg	0	0.1	520.306	524.038	521.689	0
35	1	16	122	524.314	4	Aircraft2_10%_21.jpg	1	0.1	524.314	528.046	525.12	1
35	1	16	123	528.321	4	Aircraft1_10%_16.jpg	0	0.1	528.321	532.051	529.274	0
35	1	16	124	532.339	4	Aircraft1_10%_46.jpg	0	0.1	532.339	536.07	533.422	0
35	1	16	125	536.354	4	Aircraft2_10%_40.jpg	1	0.1	536.354	540.089	537.277	1
35	1	16	126	540.37	4	rest.jpg	n/a	n/a	540.37	544.103	544.37	n/a
35	1	16	127	544.336	4	rest.jpg	n/a	n/a	544.336	548.066	548.336	n/a
35	1	16	128	548.298	4	rest.jpg	n/a	n/a	548.298	552.03	552.298	n/a
35	1	17	129	552.309	4	Aircraft2_90%_4.jpg	1	0.9	552.309	556.044	554.787	1
35	1	17	130	556.311	4	Aircraft1_90%_43.jpg	0	0.9	556.311	560.046	559.209	0
35	1	17	131	560.331	4	Aircraft1_90%_9.jpg	0	0.9	560.331	564.064	564.331	0
35	1	17	132	564.332	4	Aircraft1_90%_11.jpg	0	0.9	564.332	568.062	565.515	0
35	1	17	133	568.346	4	Aircraft1_90%_50.jpg	0	0.9	568.346	572.081	570.429	0
35	1	17	134	572.351	4	rest.jpg	n/a	n/a	572.351	576.087	576.351	n/a
35	1	17	135	576.321	4	rest.jpg	n/a	n/a	576.321	580.057	580.321	n/a
35	1	17	136	580.308	4	rest.jpg	n/a	n/a	580.308	584.038	584.308	n/a
35	1	18	137	584.313	4	Aircraft1_70%_12.jpg	0	0.75	584.313	588.044	585.407	0
35	1	18	138	588.337	4	Aircraft2_70%_32.jpg	1	0.75	588.337	592.075	589.752	1
35	1	18	139	592.357	4	Aircraft2_70%_48.jpg	1	0.75	592.357	596.087	594.528	1
35	1	18	140	596.361	4	Aircraft1_70%_19.jpg	0	0.75	596.361	600.098	597.615	0
35	1	18	141	600.391	4	Aircraft1_70%_33.jpg	0	0.75	600.391	604.127	601.78	0
35	1	18	142	604.413	4	rest.jpg	n/a	n/a	604.413	608.149	608.413	n/a
35	1	18	143	608.383	4	rest.jpg	n/a	n/a	608.383	612.116	612.383	n/a
35	1	18	144	612.351	4	rest.jpg	n/a	n/a	612.351	616.08	616.351	n/a
35	1	19	145	616.354	4	Aircraft2_10%_23.jpg	1	0.1	616.354	620.09	618.821	1
35	1	19	146	620.358	4	Aircraft1_10%_28.jpg	0	0.1	620.358	624.093	621.344	0
35	1	19	147	624.366	4	Aircraft2_10%_13.jpg	1	0.1	624.366	628.098	625.633	1
35	1	19	148	628.385	4	Aircraft1_10%_45.jpg	0	0.1	628.385	632.118	629.553	0
35	1	19	149	632.393	4	Aircraft1_10%_37.jpg	0	0.1	632.393	636.128	633.331	0
35	1	19	150	636.415	4	rest.jpg	n/a	n/a	636.415	640.146	640.415	n/a
35	1	19	151	640.396	4	rest.jpg	n/a	n/a	640.396	644.133	644.396	n/a
35	1	19	152	644.388	4	rest.jpg	n/a	n/a	644.388	648.118	648.388	n/a
35	1	20	153	648.385	4	Aircraft2_90%_33.jpg	1	0.9	648.385	652.114	649.883	1
35	1	20	154	652.396	4	Aircraft2_90%_38.jpg	1	0.9	652.396	656.132	653.848	1
35	1	20	155	656.416	4	Aircraft1_90%_30.jpg	0	0.9	656.416	660.152	660.416	0
35	1	20	156	660.419	4	Aircraft1_90%_41.jpg	0	0.9	660.419	664.154	660.756	0
35	1	20	157	664.44	4	Aircraft1_90%_18.jpg	0	0.9	664.44	668.176	665.99	0
35	1	20	158	668.462	4	rest.jpg	n/a	n/a	668.462	672.194	672.462	n/a
35	1	20	159	672.428	4	rest.jpg	n/a	n/a	672.428	676.163	676.428	n/a
35	1	20	160	676.409	4	rest.jpg	n/a	n/a	676.409	680.139	680.409	n/a
35	1	21	161	680.412	4	Aircraft2_70%_9.jpg	1	0.75	680.412	684.144	681.935	1
35	1	21	162	684.425	4	Aircraft2_70%_6.jpg	1	0.75	684.425	688.155	685.399	1
35	1	21	163	688.446	4	Aircraft1_70%_23.jpg	0	0.75	688.446	692.178	690.656	0
35	1	21	164	692.449	4	Aircraft1_70%_21.jpg	0	0.75	692.449	696.179	693.671	0
35	1	21	165	696.471	4	Aircraft2_70%_36.jpg	1	0.75	696.471	700.203	697.252	1
35	1	21	166	700.483	4	rest.jpg	n/a	n/a	700.483	704.214	704.483	n/a
35	1	21	167	704.45	4	rest.jpg	n/a	n/a	704.45	708.186	708.45	n/a
35	1	21	168	708.434	4	rest.jpg	n/a	n/a	708.434	712.164	712.434	n/a
35	1	22	169	712.447	4	Aircraft2_10%_41.jpg	1	0.1	712.447	716.177	713.683	1
35	1	22	170	716.444	4	Aircraft1_10%_22.jpg	0	0.1	716.444	720.176	717.451	0
35	1	22	171	720.44	4	Aircraft1_10%_44.jpg	0	0.1	720.44	724.172	721.749	0
35	1	22	172	724.44	4	Aircraft1_10%_1.jpg	0	0.1	724.44	728.169	725.37	0
35	1	22	173	728.451	4	Aircraft2_10%_37.jpg	1	0.1	728.451	732.181	729.503	1
35	1	22	174	732.445	4	rest.jpg	n/a	n/a	732.445	736.175	736.445	n/a
35	1	22	175	736.405	4	rest.jpg	n/a	n/a	736.405	740.135	740.405	n/a
35	1	22	176	740.367	4	rest.jpg	n/a	n/a	740.367	744.105	744.367	n/a
35	1	23	177	744.367	4	Aircraft2_90%_31.jpg	1	0.9	744.367	748.104	746.18	1
35	1	23	178	748.365	4	Aircraft1_90%_4.jpg	0	0.9	748.365	752.096	751.784	0
35	1	23	179	752.358	4	Aircraft2_90%_20.jpg	1	0.9	752.358	756.094	754.519	1
35	1	23	180	756.378	4	Aircraft1_90%_7.jpg	0	0.9	756.378	760.114	758.974	0
35	1	23	181	760.381	4	Aircraft1_90%_8.jpg	0	0.9	760.381	764.115	763.287	0
35	1	23	182	764.383	4	rest.jpg	n/a	n/a	764.383	768.113	768.383	n/a
35	1	23	183	768.356	4	rest.jpg	n/a	n/a	768.356	772.089	772.356	n/a
35	1	23	184	772.321	4	rest.jpg	n/a	n/a	772.321	776.051	776.321	n/a
35	1	24	185	776.324	4	Aircraft2_70%_14.jpg	1	0.75	776.324	780.054	779.128	1
35	1	24	186	780.326	4	Aircraft2_70%_5.jpg	1	0.75	780.326	784.065	782.687	1
35	1	24	187	784.355	4	Aircraft2_70%_15.jpg	1	0.75	784.355	788.093	786.016	1
35	1	24	188	788.374	4	Aircraft2_70%_19.jpg	1	0.75	788.374	792.111	789.692	1
35	1	24	189	792.397	4	Aircraft1_70%_31.jpg	0	0.75	792.397	796.129	793.769	0
35	1	24	190	796.412	4	rest.jpg	n/a	n/a	796.412	800.142	800.412	n/a
35	1	24	191	800.375	4	rest.jpg	n/a	n/a	800.375	804.108	804.375	n/a
35	1	24	192	804.353	4	rest.jpg	n/a	n/a	804.353	808.088	808.353	n/a
35	1	25	193	808.378	4	Aircraft2_10%_9.jpg	1	0.1	808.378	812.113	810.351	1
35	1	25	194	812.381	4	Aircraft2_10%_6.jpg	1	0.1	812.381	816.114	813.282	1
35	1	25	195	816.389	4	Aircraft1_10%_23.jpg	0	0.1	816.389	820.119	817.296	0
35	1	25	196	820.409	4	Aircraft1_10%_21.jpg	0	0.1	820.409	824.141	821.768	0
35	1	25	197	824.411	4	Aircraft2_10%_36.jpg	1	0.1	824.411	828.141	825.229	1
35	1	25	198	828.414	4	rest.jpg	n/a	n/a	828.414	832.149	832.414	n/a
35	1	25	199	832.382	4	rest.jpg	n/a	n/a	832.382	836.114	836.382	n/a
35	1	25	200	836.348	4	rest.jpg	n/a	n/a	836.348	840.082	840.348	n/a
35	1	26	201	840.347	4	Aircraft2_90%_24.jpg	1	0.9	840.347	844.079	842.313	1
35	1	26	202	844.346	4	Aircraft2_90%_2.jpg	1	0.9	844.346	848.078	845.219	1
35	1	26	203	848.365	4	Aircraft2_90%_43.jpg	1	0.9	848.365	852.1	849.265	1
35	1	26	204	852.369	4	Aircraft2_90%_46.jpg	1	0.9	852.369	856.106	853.634	1
35	1	26	205	856.395	4	Aircraft1_90%_42.jpg	0	0.9	856.395	860.128	858.515	0
35	1	26	206	860.418	4	rest.jpg	n/a	n/a	860.418	864.149	864.418	n/a
35	1	26	207	864.399	4	rest.jpg	n/a	n/a	864.399	868.134	868.399	n/a
35	1	26	208	868.368	4	rest.jpg	n/a	n/a	868.368	872.1	872.368	n/a
35	1	27	209	872.394	4	Aircraft1_70%_3.jpg	0	0.75	872.394	876.123	873.769	0
35	1	27	210	876.395	4	Aircraft2_70%_28.jpg	1	0.75	876.395	880.126	877.663	1
35	1	27	211	880.4	4	Aircraft1_70%_24.jpg	0	0.75	880.4	884.136	881.671	0
35	1	27	212	884.424	4	Aircraft2_70%_39.jpg	1	0.75	884.424	888.161	885.558	1
35	1	27	213	888.44	4	Aircraft2_70%_8.jpg	1	0.75	888.44	892.171	889.858	1
35	1	27	214	892.461	4	rest.jpg	n/a	n/a	892.461	896.197	896.461	n/a
35	1	27	215	896.446	4	rest.jpg	n/a	n/a	896.446	900.181	900.446	n/a
35	1	27	216	900.415	4	rest.jpg	n/a	n/a	900.415	904.152	904.415	n/a
35	1	28	217	904.441	4	Aircraft1_10%_12.jpg	0	0.1	904.441	908.174	905.493	0
35	1	28	218	908.45	4	Aircraft2_10%_32.jpg	1	0.1	908.45	912.183	909.585	1
35	1	28	219	912.458	4	Aircraft2_10%_48.jpg	1	0.1	912.458	916.193	913.337	1
35	1	28	220	916.462	4	Aircraft1_10%_19.jpg	0	0.1	916.462	920.194	917.458	0
35	1	28	221	920.463	4	Aircraft1_10%_33.jpg	0	0.1	920.463	924.193	921.558	0
35	1	28	222	924.464	4	rest.jpg	n/a	n/a	924.464	928.199	928.464	n/a
35	1	28	223	928.433	4	rest.jpg	n/a	n/a	928.433	932.163	932.433	n/a
35	1	28	224	932.414	4	rest.jpg	n/a	n/a	932.414	936.146	936.414	n/a
35	1	29	225	936.431	4	Aircraft1_90%_17.jpg	0	0.9	936.431	940.167	938.128	0
35	1	29	226	940.434	4	Aircraft2_90%_42.jpg	1	0.9	940.434	944.164	941.881	1
35	1	29	227	944.432	4	Aircraft2_90%_44.jpg	1	0.9	944.432	948.162	946.014	1
35	1	29	228	948.432	4	Aircraft1_90%_10.jpg	0	0.9	948.432	952.161	950.647	0
35	1	29	229	952.439	4	Aircraft2_90%_25.jpg	1	0.9	952.439	956.177	953.602	1
35	1	29	230	956.46	4	rest.jpg	n/a	n/a	956.46	960.19	960.46	n/a
35	1	29	231	960.439	4	rest.jpg	n/a	n/a	960.439	964.172	964.439	n/a
35	1	29	232	964.406	4	rest.jpg	n/a	n/a	964.406	968.136	968.406	n/a
35	1	30	233	968.424	4	Aircraft1_70%_25.jpg	0	0.75	968.424	972.156	969.992	0
35	1	30	234	972.444	4	Aircraft2_70%_49.jpg	1	0.75	972.444	976.179	974.806	1
35	1	30	235	976.466	4	Aircraft2_70%_10.jpg	1	0.75	976.466	980.202	978.943	1
35	1	30	236	980.476	4	Aircraft2_70%_12.jpg	1	0.75	980.476	984.213	982.092	1
35	1	30	237	984.505	4	Aircraft2_70%_7.jpg	1	0.75	984.505	988.24	986.195	1
35	1	30	238	988.509	4	rest.jpg	n/a	n/a	988.509	992.239	992.509	n/a
35	1	30	239	992.471	4	rest.jpg	n/a	n/a	992.471	996.201	996.471	n/a
35	1	30	240	996.444	4	rest.jpg	n/a	n/a	996.444	1000.174	1000.444	n/a
