onset	duration	stim_file	stim_lable	levelOfOcclusion	stim_started	stim_stopped	key_time	key_fix	stim_started_1	stim_stopped_1	key_time_1	key_fix_1
39.989	4	Aircraft1_10%_17.jpg	0	0.1	39.989	43.722	41.21	0	39.989	43.722	41.21	0
44.006	4	Aircraft2_10%_42.jpg	1	0.1	44.006	47.737	44.651	1	44.006	47.737	44.651	1
48.004	4	Aircraft2_10%_44.jpg	1	0.1	48.004	51.735	48.671	1	48.004	51.735	48.671	1
52.017	4	Aircraft1_10%_10.jpg	0	0.1	52.017	55.747	52.666	0	52.017	55.747	52.666	0
56.025	4	Aircraft2_10%_25.jpg	1	0.1	56.025	59.758	57.036	1	56.025	59.758	57.036	1
60.041	4	rest.jpg	NaN	NaN	60.041	63.778	64.041	NaN	60.041	63.778	64.041	NaN
64.024	4	rest.jpg	NaN	NaN	64.024	67.756	68.024	NaN	64.024	67.756	68.024	NaN
68.007	4	rest.jpg	NaN	NaN	68.007	71.746	72.007	NaN	68.007	71.746	72.007	NaN
72.026	4	Aircraft1_90%_12.jpg	0	0.9	72.026	75.76	73.589	0	72.026	75.76	73.589	0
76.022	4	Aircraft2_90%_32.jpg	1	0.9	76.022	79.754	77.949	1	76.022	79.754	77.949	1
80.015	4	Aircraft2_90%_48.jpg	1	0.9	80.015	83.747	81.14	1	80.015	83.747	81.14	1
84.028	4	Aircraft1_90%_19.jpg	0	0.9	84.028	87.767	85.427	0	84.028	87.767	85.427	0
88.026	4	Aircraft1_90%_33.jpg	0	0.9	88.026	91.759	88.906	0	88.026	91.759	88.906	0
92.021	4	rest.jpg	NaN	NaN	92.021	95.753	96.021	NaN	92.021	95.753	96.021	NaN
95.985	4	rest.jpg	NaN	NaN	95.985	99.719	99.985	NaN	95.985	99.719	99.985	NaN
99.968	4	rest.jpg	NaN	NaN	99.968	103.703	103.968	NaN	99.968	103.703	103.968	NaN
103.985	4	Aircraft2_70%_33.jpg	1	0.75	103.985	107.722	104.888	1	103.985	107.722	104.888	1
107.988	4	Aircraft2_70%_38.jpg	1	0.75	107.988	111.725	109.181	1	107.988	111.725	109.181	1
112.01	4	Aircraft1_70%_30.jpg	0	0.75	112.01	115.748	113.738	0	112.01	115.748	113.738	0
116.016	4	Aircraft1_70%_41.jpg	0	0.75	116.016	119.751	117.897	0	116.016	119.751	117.897	0
120.017	4	Aircraft1_70%_18.jpg	0	0.75	120.017	123.754	120.982	0	120.017	123.754	120.982	0
124.035	4	rest.jpg	NaN	NaN	124.035	127.766	128.035	NaN	124.035	127.766	128.035	NaN
128.014	4	rest.jpg	NaN	NaN	128.014	131.751	132.014	NaN	128.014	131.751	132.014	NaN
132	4	rest.jpg	NaN	NaN	132	135.737	136	NaN	132	135.737	136	NaN
136.025	4	Aircraft2_10%_24.jpg	1	0.1	136.025	139.759	136.99	1	136.025	139.759	136.99	1
140.027	4	Aircraft2_10%_2.jpg	1	0.1	140.027	143.766	140.892	1	140.027	143.766	140.892	1
144.052	4	Aircraft2_10%_43.jpg	1	0.1	144.052	147.791	144.744	1	144.052	147.791	144.744	1
148.078	4	Aircraft2_10%_46.jpg	1	0.1	148.078	151.812	148.688	1	148.078	151.812	148.688	1
152.093	4	Aircraft1_10%_42.jpg	0	0.1	152.093	155.825	152.919	0	152.093	155.825	152.919	0
156.109	4	rest.jpg	NaN	NaN	156.109	159.846	160.109	NaN	156.109	159.846	160.109	NaN
160.095	4	rest.jpg	NaN	NaN	160.095	163.832	164.095	NaN	160.095	163.832	164.095	NaN
164.084	4	rest.jpg	NaN	NaN	164.084	167.823	168.084	NaN	164.084	167.823	168.084	NaN
168.086	4	Aircraft2_90%_9.jpg	1	0.9	168.086	171.819	169.667	1	168.086	171.819	169.667	1
172.099	4	Aircraft2_90%_6.jpg	1	0.9	172.099	175.839	173.566	1	172.099	175.839	173.566	1
176.117	4	Aircraft1_90%_23.jpg	0	0.9	176.117	179.85	177.823	0	176.117	179.85	177.823	0
180.115	4	Aircraft1_90%_21.jpg	0	0.9	180.115	183.849	181.101	0	180.115	183.849	181.101	0
184.113	4	Aircraft2_90%_36.jpg	1	0.9	184.113	187.845	184.978	1	184.113	187.845	184.978	1
188.134	4	rest.jpg	NaN	NaN	188.134	191.865	192.134	NaN	188.134	191.865	192.134	NaN
192.118	4	rest.jpg	NaN	NaN	192.118	195.849	196.118	NaN	192.118	195.849	196.118	NaN
196.098	4	rest.jpg	NaN	NaN	196.098	199.828	200.098	NaN	196.098	199.828	200.098	NaN
200.116	4	Aircraft2_70%_31.jpg	1	0.75	200.116	203.85	201.533	1	200.116	203.85	201.533	1
204.119	4	Aircraft1_70%_4.jpg	0	0.75	204.119	207.852	204.925	0	204.119	207.852	204.925	0
208.122	4	Aircraft2_70%_20.jpg	1	0.75	208.122	211.856	209.496	1	208.122	211.856	209.496	1
212.126	4	Aircraft1_70%_7.jpg	0	0.75	212.126	215.858	213.013	0	212.126	215.858	213.013	0
216.127	4	Aircraft1_70%_8.jpg	0	0.75	216.127	219.863	216.919	0	216.127	219.863	216.919	0
220.131	4	rest.jpg	NaN	NaN	220.131	223.864	224.131	NaN	220.131	223.864	224.131	NaN
224.113	4	rest.jpg	NaN	NaN	224.113	227.846	228.113	NaN	224.113	227.846	228.113	NaN
228.098	4	rest.jpg	NaN	NaN	228.098	231.831	232.098	NaN	228.098	231.831	232.098	NaN
232.121	4	Aircraft2_10%_31.jpg	1	0.1	232.121	235.853	232.893	1	232.121	235.853	232.893	1
236.147	4	Aircraft1_10%_4.jpg	0	0.1	236.147	239.882	236.982	0	236.147	239.882	236.982	0
240.165	4	Aircraft2_10%_20.jpg	1	0.1	240.165	243.902	240.919	1	240.165	243.902	240.919	1
244.195	4	Aircraft1_10%_7.jpg	0	0.1	244.195	247.935	244.912	0	244.195	247.935	244.912	0
248.226	4	Aircraft1_10%_8.jpg	0	0.1	248.226	251.962	248.96	0	248.226	251.962	248.96	0
252.229	4	rest.jpg	NaN	NaN	252.229	255.966	256.229	NaN	252.229	255.966	256.229	NaN
256.216	4	rest.jpg	NaN	NaN	256.216	259.948	260.216	NaN	256.216	259.948	260.216	NaN
260.2	4	rest.jpg	NaN	NaN	260.2	263.932	264.2	NaN	260.2	263.932	264.2	NaN
264.215	4	Aircraft2_90%_41.jpg	1	0.9	264.215	267.945	265.662	1	264.215	267.945	265.662	1
268.222	4	Aircraft1_90%_22.jpg	0	0.9	268.222	271.957	269.708	0	268.222	271.957	269.708	0
272.234	4	Aircraft1_90%_44.jpg	0	0.9	272.234	275.964	273.6	0	272.234	275.964	273.6	0
276.23	4	Aircraft1_90%_1.jpg	0	0.9	276.23	279.965	277.638	0	276.23	279.965	277.638	0
280.23	4	Aircraft2_90%_37.jpg	1	0.9	280.23	283.96	281.351	1	280.23	283.96	281.351	1
284.249	4	rest.jpg	NaN	NaN	284.249	287.984	288.249	NaN	284.249	287.984	288.249	NaN
288.221	4	rest.jpg	NaN	NaN	288.221	291.957	292.221	NaN	288.221	291.957	292.221	NaN
292.196	4	rest.jpg	NaN	NaN	292.196	295.925	296.196	NaN	292.196	295.925	296.196	NaN
296.192	4	Aircraft2_70%_41.jpg	1	0.75	296.192	299.923	297.42	1	296.192	299.923	297.42	1
300.212	4	Aircraft1_70%_22.jpg	0	0.75	300.212	303.946	301.719	0	300.212	303.946	301.719	0
304.214	4	Aircraft1_70%_44.jpg	0	0.75	304.214	307.952	305.289	0	304.214	307.952	305.289	0
308.238	4	Aircraft1_70%_1.jpg	0	0.75	308.238	311.973	309.29	0	308.238	311.973	309.29	0
312.256	4	Aircraft2_70%_37.jpg	1	0.75	312.256	315.986	313.199	1	312.256	315.986	313.199	1
316.272	4	rest.jpg	NaN	NaN	316.272	320.002	320.272	NaN	316.272	320.002	320.272	NaN
320.255	4	rest.jpg	NaN	NaN	320.255	323.986	324.255	NaN	320.255	323.986	324.255	NaN
324.222	4	rest.jpg	NaN	NaN	324.222	327.959	328.222	NaN	324.222	327.959	328.222	NaN
328.247	4	Aircraft2_10%_33.jpg	1	0.1	328.247	331.977	329.067	1	328.247	331.977	329.067	1
332.255	4	Aircraft2_10%_38.jpg	1	0.1	332.255	335.99	333.226	1	332.255	335.99	333.226	1
336.26	4	Aircraft1_10%_30.jpg	0	0.1	336.26	339.99	337.084	0	336.26	339.99	337.084	0
340.28	4	Aircraft1_10%_41.jpg	0	0.1	340.28	344.014	341.602	0	340.28	344.014	341.602	0
344.28	4	Aircraft1_10%_18.jpg	0	0.1	344.28	348.017	345.003	0	344.28	348.017	345.003	0
348.303	4	rest.jpg	NaN	NaN	348.303	352.032	352.303	NaN	348.303	352.032	352.303	NaN
352.284	4	rest.jpg	NaN	NaN	352.284	356.013	356.284	NaN	352.284	356.013	356.284	NaN
356.248	4	rest.jpg	NaN	NaN	356.248	359.984	360.248	NaN	356.248	359.984	360.248	NaN
360.268	4	Aircraft2_90%_23.jpg	1	0.9	360.268	363.997	362.024	1	360.268	363.997	362.024	1
364.281	4	Aircraft1_90%_28.jpg	0	0.9	364.281	368.017	365.801	0	364.281	368.017	365.801	0
368.294	4	Aircraft2_90%_13.jpg	1	0.9	368.294	372.03	369.984	1	368.294	372.03	369.984	1
372.312	4	Aircraft1_90%_45.jpg	0	0.9	372.312	376.046	373.196	0	372.312	376.046	373.196	0
376.326	4	Aircraft1_90%_37.jpg	0	0.9	376.326	380.057	377.54	0	376.326	380.057	377.54	0
380.341	4	rest.jpg	NaN	NaN	380.341	384.072	384.341	NaN	380.341	384.072	384.341	NaN
384.304	4	rest.jpg	NaN	NaN	384.304	388.038	388.304	NaN	384.304	388.038	388.304	NaN
388.287	4	rest.jpg	NaN	NaN	388.287	392.017	392.287	NaN	388.287	392.017	392.287	NaN
392.283	4	Aircraft1_70%_2.jpg	0	0.75	392.283	396.013	393.297	0	392.283	396.013	393.297	0
396.282	4	Aircraft1_70%_39.jpg	0	0.75	396.282	400.016	397.785	0	396.282	400.016	397.785	0
400.28	4	Aircraft2_70%_26.jpg	1	0.75	400.28	404.011	402.06	1	400.28	404.011	402.06	1
404.297	4	Aircraft1_70%_15.jpg	0	0.75	404.297	408.034	405.054	0	404.297	408.034	405.054	0
408.317	4	Aircraft2_70%_16.jpg	1	0.75	408.317	412.049	409.285	1	408.317	412.049	409.285	1
412.335	4	rest.jpg	NaN	NaN	412.335	416.065	416.335	NaN	412.335	416.065	416.335	NaN
416.297	4	rest.jpg	NaN	NaN	416.297	420.026	420.297	NaN	416.297	420.026	420.297	NaN
420.273	4	rest.jpg	NaN	NaN	420.273	424.005	424.273	NaN	420.273	424.005	424.273	NaN
424.277	4	Aircraft2_10%_4.jpg	1	0.1	424.277	428.011	425.2	1	424.277	428.011	425.2	1
428.283	4	Aircraft1_10%_43.jpg	0	0.1	428.283	432.018	429.16	0	428.283	432.018	429.16	0
432.296	4	Aircraft1_10%_9.jpg	0	0.1	432.296	436.03	433.148	0	432.296	436.03	433.148	0
436.327	4	Aircraft1_10%_11.jpg	0	0.1	436.327	440.056	436.98	0	436.327	440.056	436.98	0
440.342	4	Aircraft1_10%_50.jpg	0	0.1	440.342	444.078	440.976	0	440.342	444.078	440.976	0
444.37	4	rest.jpg	NaN	NaN	444.37	448.104	448.37	NaN	444.37	448.104	448.37	NaN
448.352	4	rest.jpg	NaN	NaN	448.352	452.081	452.352	NaN	448.352	452.081	452.352	NaN
452.329	4	rest.jpg	NaN	NaN	452.329	456.058	456.329	NaN	452.329	456.058	456.329	NaN
456.332	4	Aircraft1_90%_38.jpg	0	0.9	456.332	460.063	458.048	0	456.332	460.063	458.048	0
460.344	4	Aircraft2_90%_21.jpg	1	0.9	460.344	464.073	461.585	1	460.344	464.073	461.585	1
464.349	4	Aircraft1_90%_16.jpg	0	0.9	464.349	468.079	466.245	0	464.349	468.079	466.245	0
468.344	4	Aircraft1_90%_46.jpg	0	0.9	468.344	472.078	470.277	0	468.344	472.078	470.277	0
472.349	4	Aircraft2_90%_40.jpg	1	0.9	472.349	476.08	474.512	1	472.349	476.08	474.512	1
476.349	4	rest.jpg	NaN	NaN	476.349	480.078	480.349	NaN	476.349	480.078	480.349	NaN
480.328	4	rest.jpg	NaN	NaN	480.328	484.063	484.328	NaN	480.328	484.063	484.328	NaN
484.312	4	rest.jpg	NaN	NaN	484.312	488.042	488.312	NaN	484.312	488.042	488.312	NaN
488.323	4	Aircraft1_70%_36.jpg	0	0.75	488.323	492.054	489.719	0	488.323	492.054	489.719	0
492.337	4	Aircraft1_70%_35.jpg	0	0.75	492.337	496.068	494.349	0	492.337	496.068	494.349	0
496.352	4	Aircraft2_70%_3.jpg	1	0.75	496.352	500.081	497.973	1	496.352	500.081	497.973	1
500.364	4	Aircraft1_70%_5.jpg	0	0.75	500.364	504.097	501.369	0	500.364	504.097	501.369	0
504.38	4	Aircraft1_70%_48.jpg	0	0.75	504.38	508.109	505.833	0	504.38	508.109	505.833	0
508.388	4	rest.jpg	NaN	NaN	508.388	512.119	512.388	NaN	508.388	512.119	512.388	NaN
512.367	4	rest.jpg	NaN	NaN	512.367	516.096	516.367	NaN	512.367	516.096	516.367	NaN
516.347	4	rest.jpg	NaN	NaN	516.347	520.079	520.347	NaN	516.347	520.079	520.347	NaN
520.356	4	Aircraft2_10%_18.jpg	1	0.1	520.356	524.091	521.525	1	520.356	524.091	521.525	1
524.373	4	Aircraft1_10%_29.jpg	0	0.1	524.373	528.104	525.045	0	524.373	528.104	525.045	0
528.368	4	Aircraft2_10%_1.jpg	1	0.1	528.368	532.103	528.925	1	528.368	532.103	528.925	1
532.391	4	Aircraft1_10%_26.jpg	0	0.1	532.391	536.122	533.143	0	532.391	536.122	533.143	0
536.384	4	Aircraft2_10%_34.jpg	1	0.1	536.384	540.121	537.082	1	536.384	540.121	537.082	1
540.4	4	rest.jpg	NaN	NaN	540.4	544.132	544.4	NaN	540.4	544.132	544.4	NaN
544.364	4	rest.jpg	NaN	NaN	544.364	548.096	548.364	NaN	544.364	548.096	548.364	NaN
548.34	4	rest.jpg	NaN	NaN	548.34	552.069	552.34	NaN	548.34	552.069	552.34	NaN
552.33	4	Aircraft2_90%_30.jpg	1	0.9	552.33	556.062	553.847	1	552.33	556.062	553.847	1
556.343	4	Aircraft2_90%_27.jpg	1	0.9	556.343	560.072	557.45	1	556.343	560.072	557.45	1
560.354	4	Aircraft2_90%_50.jpg	1	0.9	560.354	564.083	561.91	1	560.354	564.083	561.91	1
564.362	4	Aircraft2_90%_29.jpg	1	0.9	564.362	568.093	566.687	1	564.362	568.093	566.687	1
568.354	4	Aircraft1_90%_6.jpg	0	0.9	568.354	572.082	570.94	0	568.354	572.082	570.94	0
572.365	4	rest.jpg	NaN	NaN	572.365	576.094	576.365	NaN	572.365	576.094	576.365	NaN
576.335	4	rest.jpg	NaN	NaN	576.335	580.063	580.335	NaN	576.335	580.063	580.335	NaN
580.311	4	rest.jpg	NaN	NaN	580.311	584.04	584.311	NaN	580.311	584.04	584.311	NaN
584.302	4	Aircraft2_70%_17.jpg	1	0.75	584.302	588.031	585.399	1	584.302	588.031	585.399	1
588.294	4	Aircraft2_70%_11.jpg	1	0.75	588.294	592.025	589.543	1	588.294	592.025	589.543	1
592.288	4	Aircraft1_70%_20.jpg	0	0.75	592.288	596.019	593.77	0	592.288	596.019	593.77	0
596.311	4	Aircraft2_70%_47.jpg	1	0.75	596.311	600.042	597.238	1	596.311	600.042	597.238	1
600.326	4	Aircraft2_70%_45.jpg	1	0.75	600.326	604.055	601.186	1	600.326	604.055	601.186	1
604.34	4	rest.jpg	NaN	NaN	604.34	608.073	608.34	NaN	604.34	608.073	608.34	NaN
608.32	4	rest.jpg	NaN	NaN	608.32	612.049	612.32	NaN	608.32	612.049	612.32	NaN
612.281	4	rest.jpg	NaN	NaN	612.281	616.011	616.281	NaN	612.281	616.011	616.281	NaN
616.297	4	Aircraft1_10%_32.jpg	0	0.1	616.297	620.027	617.393	0	616.297	620.027	617.393	0
620.315	4	Aircraft1_10%_49.jpg	0	0.1	620.315	624.05	621.074	0	620.315	624.05	621.074	0
624.318	4	Aircraft2_10%_22.jpg	1	0.1	624.318	628.052	624.92	1	624.318	628.052	624.92	1
628.335	4	Aircraft1_10%_34.jpg	0	0.1	628.335	632.067	629.163	0	628.335	632.067	629.163	0
632.335	4	Aircraft1_10%_14.jpg	0	0.1	632.335	636.07	633.094	0	632.335	636.07	633.094	0
636.354	4	rest.jpg	NaN	NaN	636.354	640.088	640.354	NaN	636.354	640.088	640.354	NaN
640.335	4	rest.jpg	NaN	NaN	640.335	644.066	644.335	NaN	640.335	644.066	644.335	NaN
644.296	4	rest.jpg	NaN	NaN	644.296	648.032	648.296	NaN	644.296	648.032	648.296	NaN
648.29	4	Aircraft1_90%_1.jpg	0	0.9	648.29	652.025	649.958	0	648.29	652.025	649.958	0
652.284	4	Aircraft1_90%_47.jpg	0	0.9	652.284	656.018	653.616	0	652.284	656.018	653.616	0
656.296	4	Aircraft1_90%_40.jpg	0	0.9	656.296	660.025	657.428	0	656.296	660.025	657.428	0
660.3	4	Aircraft1_90%_27.jpg	0	0.9	660.3	664.036	661.863	0	660.3	664.036	661.863	0
664.315	4	Aircraft2_90%_35.jpg	1	0.9	664.315	668.047	665.556	1	664.315	668.047	665.556	1
668.311	4	rest.jpg	NaN	NaN	668.311	672.04	672.311	NaN	668.311	672.04	672.311	NaN
672.29	4	rest.jpg	NaN	NaN	672.29	676.023	676.29	NaN	672.29	676.023	676.29	NaN
676.253	4	rest.jpg	NaN	NaN	676.253	679.984	680.253	NaN	676.253	679.984	680.253	NaN
680.272	4	Aircraft2_70%_23.jpg	1	0.75	680.272	684.007	681.497	1	680.272	684.007	681.497	1
684.298	4	Aircraft1_70%_28.jpg	0	0.75	684.298	688.03	685.24	0	684.298	688.03	685.24	0
688.297	4	Aircraft2_70%_13.jpg	1	0.75	688.297	692.026	689.429	1	688.297	692.026	689.429	1
692.312	4	Aircraft1_70%_45.jpg	0	0.75	692.312	696.044	693.42	0	692.312	696.044	693.42	0
696.328	4	Aircraft1_70%_37.jpg	0	0.75	696.328	700.062	697.029	0	696.328	700.062	697.029	0
700.347	4	rest.jpg	NaN	NaN	700.347	704.077	704.347	NaN	700.347	704.077	704.347	NaN
704.326	4	rest.jpg	NaN	NaN	704.326	708.059	708.326	NaN	704.326	708.059	708.326	NaN
708.307	4	rest.jpg	NaN	NaN	708.307	712.043	712.307	NaN	708.307	712.043	712.307	NaN
712.322	4	Aircraft1_10%_25.jpg	0	0.1	712.322	716.051	713.539	0	712.322	716.051	713.539	0
716.341	4	Aircraft2_10%_49.jpg	1	0.1	716.341	720.076	717.101	1	716.341	720.076	717.101	1
720.342	4	Aircraft2_10%_10.jpg	1	0.1	720.342	724.074	721.167	1	720.342	724.074	721.167	1
724.358	4	Aircraft2_10%_12.jpg	1	0.1	724.358	728.087	725.014	1	724.358	728.087	725.014	1
728.35	4	Aircraft2_10%_7.jpg	1	0.1	728.35	732.081	729.069	1	728.35	732.081	729.069	1
732.361	4	rest.jpg	NaN	NaN	732.361	736.096	736.361	NaN	732.361	736.096	736.361	NaN
736.343	4	rest.jpg	NaN	NaN	736.343	740.075	740.343	NaN	736.343	740.075	740.343	NaN
740.325	4	rest.jpg	NaN	NaN	740.325	744.053	744.325	NaN	740.325	744.053	744.325	NaN
744.312	4	Aircraft2_90%_17.jpg	1	0.9	744.312	748.043	745.676	1	744.312	748.043	745.676	1
748.304	4	Aircraft2_90%_11.jpg	1	0.9	748.304	752.033	749.489	1	748.304	752.033	749.489	1
752.307	4	Aircraft1_90%_20.jpg	0	0.9	752.307	756.037	753.522	0	752.307	756.037	753.522	0
756.318	4	Aircraft2_90%_47.jpg	1	0.9	756.318	760.049	757.566	1	756.318	760.049	757.566	1
760.31	4	Aircraft2_90%_45.jpg	1	0.9	760.31	764.044	761.957	1	760.31	764.044	761.957	1
764.328	4	rest.jpg	NaN	NaN	764.328	768.063	768.328	NaN	764.328	768.063	768.328	NaN
768.295	4	rest.jpg	NaN	NaN	768.295	772.024	772.295	NaN	768.295	772.024	772.295	NaN
772.274	4	rest.jpg	NaN	NaN	772.274	776.007	776.274	NaN	772.274	776.007	776.274	NaN
776.29	4	Aircraft1_70%_38.jpg	0	0.75	776.29	780.022	777.445	0	776.29	780.022	777.445	0
780.301	4	Aircraft2_70%_21.jpg	1	0.75	780.301	784.035	781.362	1	780.301	784.035	781.362	1
784.301	4	Aircraft1_70%_16.jpg	0	0.75	784.301	788.03	786.443	0	784.301	788.03	786.443	0
788.312	4	Aircraft1_70%_46.jpg	0	0.75	788.312	792.047	789.763	0	788.312	792.047	789.763	0
792.313	4	Aircraft2_70%_40.jpg	1	0.75	792.313	796.047	794.212	1	792.313	796.047	794.212	1
796.311	4	rest.jpg	NaN	NaN	796.311	800.042	800.311	NaN	796.311	800.042	800.311	NaN
800.29	4	rest.jpg	NaN	NaN	800.29	804.022	804.29	NaN	800.29	804.022	804.29	NaN
804.267	4	rest.jpg	NaN	NaN	804.267	807.998	808.267	NaN	804.267	807.998	808.267	NaN
808.288	4	Aircraft1_10%_3.jpg	0	0.1	808.288	812.023	809.103	0	808.288	812.023	809.103	0
812.305	4	Aircraft2_10%_28.jpg	1	0.1	812.305	816.034	813.061	1	812.305	816.034	813.061	1
816.318	4	Aircraft1_10%_24.jpg	0	0.1	816.318	820.047	817.189	0	816.318	820.047	817.189	0
820.333	4	Aircraft2_10%_39.jpg	1	0.1	820.333	824.064	821.032	1	820.333	824.064	821.032	1
824.345	4	Aircraft2_10%_8.jpg	1	0.1	824.345	828.079	825.342	1	824.345	828.079	825.342	1
828.359	4	rest.jpg	NaN	NaN	828.359	832.094	832.359	NaN	828.359	832.094	832.359	NaN
832.341	4	rest.jpg	NaN	NaN	832.341	836.07	836.341	NaN	832.341	836.07	836.341	NaN
836.302	4	rest.jpg	NaN	NaN	836.302	840.037	840.302	NaN	836.302	840.037	840.302	NaN
840.321	4	Aircraft1_90%_36.jpg	0	0.9	840.321	844.056	842.027	0	840.321	844.056	842.027	0
844.338	4	Aircraft1_90%_35.jpg	0	0.9	844.338	848.068	846.133	0	844.338	848.068	846.133	0
848.344	4	Aircraft2_90%_3.jpg	1	0.9	848.344	852.078	849.233	1	848.344	852.078	849.233	1
852.338	4	Aircraft1_90%_5.jpg	0	0.9	852.338	856.072	854.206	0	852.338	856.072	854.206	0
856.345	4	Aircraft1_90%_48.jpg	0	0.9	856.345	860.08	857.207	0	856.345	860.08	857.207	0
860.344	4	rest.jpg	NaN	NaN	860.344	864.074	864.344	NaN	860.344	864.074	864.344	NaN
864.32	4	rest.jpg	NaN	NaN	864.32	868.049	868.32	NaN	864.32	868.049	868.32	NaN
868.298	4	rest.jpg	NaN	NaN	868.298	872.034	872.298	NaN	868.298	872.034	872.298	NaN
872.322	4	Aircraft2_70%_30.jpg	1	0.75	872.322	876.053	874.29	1	872.322	876.053	874.29	1
876.344	4	Aircraft2_70%_27.jpg	1	0.75	876.344	880.079	877.347	1	876.344	880.079	877.347	1
880.345	4	Aircraft2_70%_50.jpg	1	0.75	880.345	884.08	881.764	1	880.345	884.08	881.764	1
884.347	4	Aircraft2_70%_29.jpg	1	0.75	884.347	888.084	885.213	1	884.347	888.084	885.213	1
888.371	4	Aircraft1_70%_6.jpg	0	0.75	888.371	892.108	889.836	0	888.371	892.108	889.836	0
892.396	4	rest.jpg	NaN	NaN	892.396	896.125	896.396	NaN	892.396	896.125	896.396	NaN
896.374	4	rest.jpg	NaN	NaN	896.374	900.106	900.374	NaN	896.374	900.106	900.374	NaN
900.34	4	rest.jpg	NaN	NaN	900.34	904.068	904.34	NaN	900.34	904.068	904.34	NaN
904.336	4	Aircraft2_10%_14.jpg	1	0.1	904.336	908.065	905.283	1	904.336	908.065	905.283	1
908.35	4	Aircraft2_10%_5.jpg	1	0.1	908.35	912.079	909.034	1	908.35	912.079	909.034	1
912.359	4	Aircraft2_10%_15.jpg	1	0.1	912.359	916.089	912.904	1	912.359	916.089	912.904	1
916.372	4	Aircraft2_10%_19.jpg	1	0.1	916.372	920.108	916.873	1	916.372	920.108	916.873	1
920.392	4	Aircraft1_10%_31.jpg	0	0.1	920.392	924.124	921.289	0	920.392	924.124	921.289	0
924.387	4	rest.jpg	NaN	NaN	924.387	928.122	928.387	NaN	924.387	928.122	928.387	NaN
928.368	4	rest.jpg	NaN	NaN	928.368	932.103	932.368	NaN	928.368	932.103	932.368	NaN
932.352	4	rest.jpg	NaN	NaN	932.352	936.086	936.352	NaN	932.352	936.086	936.352	NaN
936.365	4	Aircraft1_90%_2.jpg	0	0.9	936.365	940.094	937.785	0	936.365	940.094	937.785	0
940.372	4	Aircraft1_90%_39.jpg	0	0.9	940.372	944.101	941.446	0	940.372	944.101	941.446	0
944.381	4	Aircraft2_90%_26.jpg	1	0.9	944.381	948.117	945.255	1	944.381	948.117	945.255	1
948.395	4	Aircraft1_90%_15.jpg	0	0.9	948.395	952.124	949.761	0	948.395	952.124	949.761	0
952.398	4	Aircraft2_90%_16.jpg	1	0.9	952.398	956.134	954.307	1	952.398	956.134	954.307	1
956.416	4	rest.jpg	NaN	NaN	956.416	960.145	960.416	NaN	956.416	960.145	960.416	NaN
960.381	4	rest.jpg	NaN	NaN	960.381	964.111	964.381	NaN	960.381	964.111	964.381	NaN
964.36	4	rest.jpg	NaN	NaN	964.36	968.088	968.36	NaN	964.36	968.088	968.36	NaN
968.368	4	Aircraft1_70%_1.jpg	0	0.75	968.368	972.104	969.303	0	968.368	972.104	969.303	0
972.371	4	Aircraft1_70%_47.jpg	0	0.75	972.371	976.102	973.456	0	972.371	976.102	973.456	0
976.388	4	Aircraft1_70%_40.jpg	0	0.75	976.388	980.122	977.16	0	976.388	980.122	977.16	0
980.385	4	Aircraft1_70%_27.jpg	0	0.75	980.385	984.12	981.525	0	980.385	984.12	981.525	0
984.385	4	Aircraft2_70%_35.jpg	1	0.75	984.385	988.114	985.68	1	984.385	988.114	985.68	1
988.399	4	rest.jpg	NaN	NaN	988.399	992.133	992.399	NaN	988.399	992.133	992.399	NaN
992.365	4	rest.jpg	NaN	NaN	992.365	996.096	996.365	NaN	992.365	996.096	996.365	NaN
996.328	4	rest.jpg	NaN	NaN	996.328	1000.063	1000.328	NaN	996.328	1000.063	1000.328	NaN
