sub	run	block	trail	oneset	duration	stim_file	stim_lable	level of occlusion	stim_started	stim_stopped	key_time	key_fix
41	1	1	1	40.003	4	Aircraft1_10%_2.jpg	0	0.1	40.003	43.738	42.248	0
41	1	1	2	44.021	4	Aircraft1_10%_39.jpg	0	0.1	44.021	47.757	45.514	0
41	1	1	3	48.027	4	Aircraft2_10%_26.jpg	1	0.1	48.027	51.76	49.145	1
41	1	1	4	52.047	4	Aircraft1_10%_15.jpg	0	0.1	52.047	55.786	53.015	0
41	1	1	5	56.08	4	Aircraft2_10%_16.jpg	1	0.1	56.08	59.815	57.665	1
41	1	1	6	60.106	4	rest.jpg	n/a	n/a	60.106	63.836	64.106	n/a
41	1	1	7	64.084	4	rest.jpg	n/a	n/a	64.084	67.82	68.084	n/a
41	1	1	8	68.071	4	rest.jpg	n/a	n/a	68.071	71.801	72.071	n/a
41	1	2	9	72.081	4	Aircraft2_90%_14.jpg	1	0.9	72.081	75.814	74.847	1
41	1	2	10	76.083	4	Aircraft2_90%_5.jpg	1	0.9	76.083	79.82	79.003	1
41	1	2	11	80.111	4	Aircraft2_90%_15.jpg	1	0.9	80.111	83.841	83.469	1
41	1	2	12	84.125	4	Aircraft2_90%_19.jpg	1	0.9	84.125	87.86	86.676	1
41	1	2	13	88.15	4	Aircraft1_90%_31.jpg	0	0.9	88.15	91.88	91.416	0
41	1	2	14	92.17	4	rest.jpg	n/a	n/a	92.17	95.906	96.17	n/a
41	1	2	15	96.159	4	rest.jpg	n/a	n/a	96.159	99.892	100.159	n/a
41	1	2	16	100.144	4	rest.jpg	n/a	n/a	100.144	103.877	104.144	n/a
41	1	3	17	104.171	4	Aircraft2_70%_4.jpg	1	0.75	104.171	107.906	106.145	1
41	1	3	18	108.186	4	Aircraft1_70%_43.jpg	0	0.75	108.186	111.92	110.425	0
41	1	3	19	112.216	4	Aircraft1_70%_9.jpg	0	0.75	112.216	115.946	115.022	0
41	1	3	20	116.22	4	Aircraft1_70%_11.jpg	0	0.75	116.22	119.95	118.592	0
41	1	3	21	120.238	4	Aircraft1_70%_50.jpg	0	0.75	120.238	123.968	122.751	0
41	1	3	22	124.253	4	rest.jpg	n/a	n/a	124.253	127.984	128.253	n/a
41	1	3	23	128.219	4	rest.jpg	n/a	n/a	128.219	131.949	132.219	n/a
41	1	3	24	132.184	4	rest.jpg	n/a	n/a	132.184	135.916	136.184	n/a
41	1	4	25	136.188	4	Aircraft1_10%_36.jpg	0	0.1	136.188	139.922	138.066	0
41	1	4	26	140.191	4	Aircraft1_10%_35.jpg	0	0.1	140.191	143.923	141.758	0
41	1	4	27	144.194	4	Aircraft2_10%_3.jpg	1	0.1	144.194	147.926	145.226	1
41	1	4	28	148.204	4	Aircraft1_10%_5.jpg	0	0.1	148.204	151.934	149.298	0
41	1	4	29	152.232	4	Aircraft1_10%_48.jpg	0	0.1	152.232	155.964	153.253	0
41	1	4	30	156.236	4	rest.jpg	n/a	n/a	156.236	159.968	160.236	n/a
41	1	4	31	160.222	4	rest.jpg	n/a	n/a	160.222	163.952	164.222	n/a
41	1	4	32	164.188	4	rest.jpg	n/a	n/a	164.188	167.923	168.188	n/a
41	1	5	33	168.195	4	Aircraft1_90%_3.jpg	0	0.9	168.195	171.928	170.088	0
41	1	5	34	172.197	4	Aircraft2_90%_28.jpg	1	0.9	172.197	175.932	174.903	1
41	1	5	35	176.218	4	Aircraft1_90%_24.jpg	0	0.9	176.218	179.948	179.252	0
41	1	5	36	180.214	4	Aircraft2_90%_39.jpg	1	0.9	180.214	183.944	182.568	1
41	1	5	37	184.212	4	Aircraft2_90%_8.jpg	1	0.9	184.212	187.942	187.034	1
41	1	5	38	188.212	4	rest.jpg	n/a	n/a	188.212	191.942	192.212	n/a
41	1	5	39	192.177	4	rest.jpg	n/a	n/a	192.177	195.907	196.177	n/a
41	1	5	40	196.146	4	rest.jpg	n/a	n/a	196.146	199.883	200.146	n/a
41	1	6	41	200.157	4	Aircraft2_70%_18.jpg	1	0.75	200.157	203.887	201.916	1
41	1	6	42	204.174	4	Aircraft1_70%_29.jpg	0	0.75	204.174	207.906	205.317	0
41	1	6	43	208.196	4	Aircraft2_70%_1.jpg	1	0.75	208.196	211.93	210.796	1
41	1	6	44	212.226	4	Aircraft1_70%_26.jpg	0	0.75	212.226	215.961	214.038	0
41	1	6	45	216.235	4	Aircraft2_70%_34.jpg	1	0.75	216.235	219.971	217.837	1
41	1	6	46	220.242	4	rest.jpg	n/a	n/a	220.242	223.978	224.242	n/a
41	1	6	47	224.228	4	rest.jpg	n/a	n/a	224.228	227.958	228.228	n/a
41	1	6	48	228.214	4	rest.jpg	n/a	n/a	228.214	231.944	232.214	n/a
41	1	7	49	232.216	4	Aircraft2_10%_17.jpg	1	0.1	232.216	235.951	233.661	1
41	1	7	50	236.228	4	Aircraft2_10%_11.jpg	1	0.1	236.228	239.958	237.261	1
41	1	7	51	240.234	4	Aircraft1_10%_20.jpg	0	0.1	240.234	243.971	241.48	0
41	1	7	52	244.248	4	Aircraft2_10%_47.jpg	1	0.1	244.248	247.977	245.062	1
41	1	7	53	248.246	4	Aircraft2_10%_45.jpg	1	0.1	248.246	251.976	249.885	1
41	1	7	54	252.246	4	rest.jpg	n/a	n/a	252.246	255.981	256.246	n/a
41	1	7	55	256.233	4	rest.jpg	n/a	n/a	256.233	259.963	260.233	n/a
41	1	7	56	260.199	4	rest.jpg	n/a	n/a	260.199	263.936	264.199	n/a
41	1	8	57	264.205	4	Aircraft1_90%_25.jpg	0	0.9	264.205	267.938	265.986	0
41	1	8	58	268.206	4	Aircraft2_90%_49.jpg	1	0.9	268.206	271.944	270.531	1
41	1	8	59	272.212	4	Aircraft2_90%_10.jpg	1	0.9	272.212	275.944	274.675	1
41	1	8	60	276.222	4	Aircraft2_90%_12.jpg	1	0.9	276.222	279.96	278.863	1
41	1	8	61	280.243	4	Aircraft2_90%_7.jpg	1	0.9	280.243	283.974	283.572	1
41	1	8	62	284.261	4	rest.jpg	n/a	n/a	284.261	287.991	288.261	n/a
41	1	8	63	288.231	4	rest.jpg	n/a	n/a	288.231	291.961	292.231	n/a
41	1	8	64	292.207	4	rest.jpg	n/a	n/a	292.207	295.942	296.207	n/a
41	1	9	65	296.232	4	Aircraft1_70%_32.jpg	0	0.75	296.232	299.962	298.645	0
41	1	9	66	300.255	4	Aircraft1_70%_49.jpg	0	0.75	300.255	303.987	302.999	0
41	1	9	67	304.272	4	Aircraft2_70%_22.jpg	1	0.75	304.272	308.002	306.881	1
41	1	9	68	308.294	4	Aircraft1_70%_34.jpg	0	0.75	308.294	312.024	311.144	0
41	1	9	69	312.314	4	Aircraft1_70%_14.jpg	0	0.75	312.314	316.049	315.425	0
41	1	9	70	316.331	4	rest.jpg	n/a	n/a	316.331	320.066	320.331	n/a
41	1	9	71	320.298	4	rest.jpg	n/a	n/a	320.298	324.03	324.298	n/a
41	1	9	72	324.274	4	rest.jpg	n/a	n/a	324.274	328.004	328.274	n/a
41	1	10	73	328.28	4	Aircraft1_10%_1.jpg	0	0.1	328.28	332.017	329.485	0
41	1	10	74	332.306	4	Aircraft1_10%_47.jpg	0	0.1	332.306	336.043	333.673	0
41	1	10	75	336.338	4	Aircraft1_10%_40.jpg	0	0.1	336.338	340.07	337.567	0
41	1	10	76	340.345	4	Aircraft1_10%_27.jpg	0	0.1	340.345	344.079	341.743	0
41	1	10	77	344.367	4	Aircraft2_10%_35.jpg	1	0.1	344.367	348.097	345.175	1
41	1	10	78	348.37	4	rest.jpg	n/a	n/a	348.37	352.099	352.37	n/a
41	1	10	79	352.348	4	rest.jpg	n/a	n/a	352.348	356.084	356.348	n/a
41	1	10	80	356.332	4	rest.jpg	n/a	n/a	356.332	360.065	360.332	n/a
41	1	11	81	360.331	4	Aircraft1_90%_32.jpg	0	0.9	360.331	364.061	362.205	0
41	1	11	82	364.343	4	Aircraft1_90%_49.jpg	0	0.9	364.343	368.08	366.86	0
41	1	11	83	368.364	4	Aircraft2_90%_22.jpg	1	0.9	368.364	372.094	370.849	1
41	1	11	84	372.361	4	Aircraft1_90%_34.jpg	0	0.9	372.361	376.094	374.848	0
41	1	11	85	376.38	4	Aircraft1_90%_14.jpg	0	0.9	376.38	380.11	378.871	0
41	1	11	86	380.398	4	rest.jpg	n/a	n/a	380.398	384.131	384.398	n/a
41	1	11	87	384.366	4	rest.jpg	n/a	n/a	384.366	388.095	388.366	n/a
41	1	11	88	388.342	4	rest.jpg	n/a	n/a	388.342	392.072	392.342	n/a
41	1	12	89	392.351	4	Aircraft2_70%_24.jpg	1	0.75	392.351	396.081	394.085	1
41	1	12	90	396.366	4	Aircraft2_70%_2.jpg	1	0.75	396.366	400.099	398.184	1
41	1	12	91	400.369	4	Aircraft2_70%_43.jpg	1	0.75	400.369	404.1	402.357	1
41	1	12	92	404.384	4	Aircraft2_70%_46.jpg	1	0.75	404.384	408.122	406.338	1
41	1	12	93	408.398	4	Aircraft1_70%_42.jpg	0	0.75	408.398	412.136	409.6	0
41	1	12	94	412.406	4	rest.jpg	n/a	n/a	412.406	416.136	416.406	n/a
41	1	12	95	416.37	4	rest.jpg	n/a	n/a	416.37	420.103	420.37	n/a
41	1	12	96	420.337	4	rest.jpg	n/a	n/a	420.337	424.066	424.337	n/a
41	1	13	97	424.361	4	Aircraft2_10%_30.jpg	1	0.1	424.361	428.091	425.52	1
41	1	13	98	428.361	4	Aircraft2_10%_27.jpg	1	0.1	428.361	432.097	429.881	1
41	1	13	99	432.388	4	Aircraft2_10%_50.jpg	1	0.1	432.388	436.119	434.404	1
41	1	13	100	436.41	4	Aircraft2_10%_29.jpg	1	0.1	436.41	440.146	438.489	1
41	1	13	101	440.421	4	Aircraft1_10%_6.jpg	0	0.1	440.421	444.157	441.676	0
41	1	13	102	444.445	4	rest.jpg	n/a	n/a	444.445	448.177	448.445	n/a
41	1	13	103	448.426	4	rest.jpg	n/a	n/a	448.426	452.158	452.426	n/a
41	1	13	104	452.392	4	rest.jpg	n/a	n/a	452.392	456.122	456.392	n/a
41	1	14	105	456.401	4	Aircraft2_90%_18.jpg	1	0.9	456.401	460.13	458.086	1
41	1	14	106	460.412	4	Aircraft1_90%_29.jpg	0	0.9	460.412	464.149	461.793	0
41	1	14	107	464.434	4	Aircraft2_90%_1.jpg	1	0.9	464.434	468.165	465.862	1
41	1	14	108	468.433	4	Aircraft1_90%_26.jpg	0	0.9	468.433	472.168	470.222	0
41	1	14	109	472.449	4	Aircraft2_90%_34.jpg	1	0.9	472.449	476.18	474.216	1
41	1	14	110	476.45	4	rest.jpg	n/a	n/a	476.45	480.181	480.45	n/a
41	1	14	111	480.425	4	rest.jpg	n/a	n/a	480.425	484.155	484.425	n/a
41	1	14	112	484.405	4	rest.jpg	n/a	n/a	484.405	488.136	488.405	n/a
41	1	15	113	488.409	4	Aircraft1_70%_17.jpg	0	0.75	488.409	492.139	490.338	0
41	1	15	114	492.41	4	Aircraft2_70%_42.jpg	1	0.75	492.41	496.14	494.156	1
41	1	15	115	496.423	4	Aircraft2_70%_44.jpg	1	0.75	496.423	500.16	498.402	1
41	1	15	116	500.433	4	Aircraft1_70%_10.jpg	0	0.75	500.433	504.166	502.49	0
41	1	15	117	504.456	4	Aircraft2_70%_25.jpg	1	0.75	504.456	508.193	506.66	1
41	1	15	118	508.476	4	rest.jpg	n/a	n/a	508.476	512.206	512.476	n/a
41	1	15	119	512.455	4	rest.jpg	n/a	n/a	512.455	516.191	516.455	n/a
41	1	15	120	516.426	4	rest.jpg	n/a	n/a	516.426	520.158	520.426	n/a
41	1	16	121	520.451	4	Aircraft1_10%_38.jpg	0	0.1	520.451	524.186	521.497	0
41	1	16	122	524.472	4	Aircraft2_10%_21.jpg	1	0.1	524.472	528.206	525.872	1
41	1	16	123	528.482	4	Aircraft1_10%_16.jpg	0	0.1	528.482	532.212	529.602	0
41	1	16	124	532.485	4	Aircraft1_10%_46.jpg	0	0.1	532.485	536.221	534.355	0
41	1	16	125	536.502	4	Aircraft2_10%_40.jpg	1	0.1	536.502	540.238	538.037	1
41	1	16	126	540.508	4	rest.jpg	n/a	n/a	540.508	544.238	544.508	n/a
41	1	16	127	544.471	4	rest.jpg	n/a	n/a	544.471	548.208	548.471	n/a
41	1	16	128	548.442	4	rest.jpg	n/a	n/a	548.442	552.174	552.442	n/a
41	1	17	129	552.441	4	Aircraft2_90%_4.jpg	1	0.9	552.441	556.174	554.203	1
41	1	17	130	556.442	4	Aircraft1_90%_43.jpg	0	0.9	556.442	560.172	558.754	0
41	1	17	131	560.439	4	Aircraft1_90%_9.jpg	0	0.9	560.439	564.173	562.164	0
41	1	17	132	564.452	4	Aircraft1_90%_11.jpg	0	0.9	564.452	568.182	567.059	0
41	1	17	133	568.447	4	Aircraft1_90%_50.jpg	0	0.9	568.447	572.183	571.186	0
41	1	17	134	572.453	4	rest.jpg	n/a	n/a	572.453	576.185	576.453	n/a
41	1	17	135	576.419	4	rest.jpg	n/a	n/a	576.419	580.154	580.419	n/a
41	1	17	136	580.403	4	rest.jpg	n/a	n/a	580.403	584.136	584.403	n/a
41	1	18	137	584.409	4	Aircraft1_70%_12.jpg	0	0.75	584.409	588.145	586.33	0
41	1	18	138	588.43	4	Aircraft2_70%_32.jpg	1	0.75	588.43	592.162	590.133	1
41	1	18	139	592.434	4	Aircraft2_70%_48.jpg	1	0.75	592.434	596.166	594.256	1
41	1	18	140	596.459	4	Aircraft1_70%_19.jpg	0	0.75	596.459	600.188	597.751	0
41	1	18	141	600.46	4	Aircraft1_70%_33.jpg	0	0.75	600.46	604.19	602.309	0
41	1	18	142	604.473	4	rest.jpg	n/a	n/a	604.473	608.203	608.473	n/a
41	1	18	143	608.437	4	rest.jpg	n/a	n/a	608.437	612.172	612.437	n/a
41	1	18	144	612.419	4	rest.jpg	n/a	n/a	612.419	616.152	616.419	n/a
41	1	19	145	616.446	4	Aircraft2_10%_23.jpg	1	0.1	616.446	620.178	617.872	1
41	1	19	146	620.463	4	Aircraft1_10%_28.jpg	0	0.1	620.463	624.193	621.46	0
41	1	19	147	624.467	4	Aircraft2_10%_13.jpg	1	0.1	624.467	628.197	626.025	1
41	1	19	148	628.467	4	Aircraft1_10%_45.jpg	0	0.1	628.467	632.203	629.788	0
41	1	19	149	632.478	4	Aircraft1_10%_37.jpg	0	0.1	632.478	636.211	633.621	0
41	1	19	150	636.495	4	rest.jpg	n/a	n/a	636.495	640.228	640.495	n/a
41	1	19	151	640.478	4	rest.jpg	n/a	n/a	640.478	644.209	644.478	n/a
41	1	19	152	644.444	4	rest.jpg	n/a	n/a	644.444	648.176	648.444	n/a
41	1	20	153	648.456	4	Aircraft2_90%_33.jpg	1	0.9	648.456	652.192	650.172	1
41	1	20	154	652.462	4	Aircraft2_90%_38.jpg	1	0.9	652.462	656.197	655.143	1
41	1	20	155	656.482	4	Aircraft1_90%_30.jpg	0	0.9	656.482	660.212	658.992	0
41	1	20	156	660.479	4	Aircraft1_90%_41.jpg	0	0.9	660.479	664.216	662.991	0
41	1	20	157	664.484	4	Aircraft1_90%_18.jpg	0	0.9	664.484	668.22	667.422	0
41	1	20	158	668.489	4	rest.jpg	n/a	n/a	668.489	672.227	672.489	n/a
41	1	20	159	672.459	4	rest.jpg	n/a	n/a	672.459	676.189	676.459	n/a
41	1	20	160	676.423	4	rest.jpg	n/a	n/a	676.423	680.159	680.423	n/a
41	1	21	161	680.451	4	Aircraft2_70%_9.jpg	1	0.75	680.451	684.187	683.402	1
41	1	21	162	684.456	4	Aircraft2_70%_6.jpg	1	0.75	684.456	688.186	685.387	1
41	1	21	163	688.475	4	Aircraft1_70%_23.jpg	0	0.75	688.475	692.211	690.089	0
41	1	21	164	692.484	4	Aircraft1_70%_21.jpg	0	0.75	692.484	696.215	694.276	0
41	1	21	165	696.487	4	Aircraft2_70%_36.jpg	1	0.75	696.487	700.22	698.222	1
41	1	21	166	700.505	4	rest.jpg	n/a	n/a	700.505	704.235	704.505	n/a
41	1	21	167	704.467	4	rest.jpg	n/a	n/a	704.467	708.203	708.467	n/a
41	1	21	168	708.435	4	rest.jpg	n/a	n/a	708.435	712.165	712.435	n/a
41	1	22	169	712.436	4	Aircraft2_10%_41.jpg	1	0.1	712.436	716.169	713.475	1
41	1	22	170	716.459	4	Aircraft1_10%_22.jpg	0	0.1	716.459	720.196	718.092	0
41	1	22	171	720.465	4	Aircraft1_10%_44.jpg	0	0.1	720.465	724.198	721.52	0
41	1	22	172	724.475	4	Aircraft1_10%_1.jpg	0	0.1	724.475	728.21	725.716	0
41	1	22	173	728.48	4	Aircraft2_10%_37.jpg	1	0.1	728.48	732.217	730.067	1
41	1	22	174	732.487	4	rest.jpg	n/a	n/a	732.487	736.217	736.487	n/a
41	1	22	175	736.463	4	rest.jpg	n/a	n/a	736.463	740.199	740.463	n/a
41	1	22	176	740.431	4	rest.jpg	n/a	n/a	740.431	744.167	744.431	n/a
41	1	23	177	744.434	4	Aircraft2_90%_31.jpg	1	0.9	744.434	748.171	746.804	1
41	1	23	178	748.436	4	Aircraft1_90%_4.jpg	0	0.9	748.436	752.174	750.391	0
41	1	23	179	752.457	4	Aircraft2_90%_20.jpg	1	0.9	752.457	756.187	755.023	1
41	1	23	180	756.47	4	Aircraft1_90%_7.jpg	0	0.9	756.47	760.2	758.582	0
41	1	23	181	760.467	4	Aircraft1_90%_8.jpg	0	0.9	760.467	764.197	762.153	0
41	1	23	182	764.468	4	rest.jpg	n/a	n/a	764.468	768.198	768.468	n/a
41	1	23	183	768.432	4	rest.jpg	n/a	n/a	768.432	772.164	772.432	n/a
41	1	23	184	772.398	4	rest.jpg	n/a	n/a	772.398	776.13	776.398	n/a
41	1	24	185	776.424	4	Aircraft2_70%_14.jpg	1	0.75	776.424	780.161	777.95	1
41	1	24	186	780.432	4	Aircraft2_70%_5.jpg	1	0.75	780.432	784.168	782.47	1
41	1	24	187	784.462	4	Aircraft2_70%_15.jpg	1	0.75	784.462	788.2	786.89	1
41	1	24	188	788.468	4	Aircraft2_70%_19.jpg	1	0.75	788.468	792.198	790.266	1
41	1	24	189	792.471	4	Aircraft1_70%_31.jpg	0	0.75	792.471	796.201	793.295	0
41	1	24	190	796.471	4	rest.jpg	n/a	n/a	796.471	800.204	800.471	n/a
41	1	24	191	800.451	4	rest.jpg	n/a	n/a	800.451	804.187	804.451	n/a
41	1	24	192	804.437	4	rest.jpg	n/a	n/a	804.437	808.17	808.437	n/a
41	1	25	193	808.463	4	Aircraft2_10%_9.jpg	1	0.1	808.463	812.194	809.882	1
41	1	25	194	812.462	4	Aircraft2_10%_6.jpg	1	0.1	812.462	816.192	813.333	1
41	1	25	195	816.482	4	Aircraft1_10%_23.jpg	0	0.1	816.482	820.212	817.767	0
41	1	25	196	820.502	4	Aircraft1_10%_21.jpg	0	0.1	820.502	824.238	821.167	0
41	1	25	197	824.508	4	Aircraft2_10%_36.jpg	1	0.1	824.508	828.24	825.438	1
41	1	25	198	828.51	4	rest.jpg	n/a	n/a	828.51	832.248	832.51	n/a
41	1	25	199	832.482	4	rest.jpg	n/a	n/a	832.482	836.212	836.482	n/a
41	1	25	200	836.466	4	rest.jpg	n/a	n/a	836.466	840.196	840.466	n/a
41	1	26	201	840.462	4	Aircraft2_90%_24.jpg	1	0.9	840.462	844.197	842.031	1
41	1	26	202	844.481	4	Aircraft2_90%_2.jpg	1	0.9	844.481	848.21	846.001	1
41	1	26	203	848.488	4	Aircraft2_90%_43.jpg	1	0.9	848.488	852.224	849.815	1
41	1	26	204	852.502	4	Aircraft2_90%_46.jpg	1	0.9	852.502	856.234	853.916	1
41	1	26	205	856.521	4	Aircraft1_90%_42.jpg	0	0.9	856.521	860.258	857.522	0
41	1	26	206	860.528	4	rest.jpg	n/a	n/a	860.528	864.258	864.528	n/a
41	1	26	207	864.503	4	rest.jpg	n/a	n/a	864.503	868.241	868.503	n/a
41	1	26	208	868.488	4	rest.jpg	n/a	n/a	868.488	872.223	872.488	n/a
41	1	27	209	872.5	4	Aircraft1_70%_3.jpg	0	0.75	872.5	876.23	873.671	0
41	1	27	210	876.52	4	Aircraft2_70%_28.jpg	1	0.75	876.52	880.255	877.675	1
41	1	27	211	880.545	4	Aircraft1_70%_24.jpg	0	0.75	880.545	884.275	881.96	0
41	1	27	212	884.545	4	Aircraft2_70%_39.jpg	1	0.75	884.545	888.277	885.796	1
41	1	27	213	888.563	4	Aircraft2_70%_8.jpg	1	0.75	888.563	892.293	890.36	1
41	1	27	214	892.555	4	rest.jpg	n/a	n/a	892.555	896.288	896.555	n/a
41	1	27	215	896.524	4	rest.jpg	n/a	n/a	896.524	900.254	900.524	n/a
41	1	27	216	900.485	4	rest.jpg	n/a	n/a	900.485	904.22	904.485	n/a
41	1	28	217	904.505	4	Aircraft1_10%_12.jpg	0	0.1	904.505	908.24	905.876	0
41	1	28	218	908.526	4	Aircraft2_10%_32.jpg	1	0.1	908.526	912.261	909.417	1
41	1	28	219	912.529	4	Aircraft2_10%_48.jpg	1	0.1	912.529	916.258	913.491	1
41	1	28	220	916.522	4	Aircraft1_10%_19.jpg	0	0.1	916.522	920.258	917.463	0
41	1	28	221	920.522	4	Aircraft1_10%_33.jpg	0	0.1	920.522	924.258	921.541	0
41	1	28	222	924.534	4	rest.jpg	n/a	n/a	924.534	928.264	928.534	n/a
41	1	28	223	928.514	4	rest.jpg	n/a	n/a	928.514	932.246	932.514	n/a
41	1	28	224	932.478	4	rest.jpg	n/a	n/a	932.478	936.216	936.478	n/a
41	1	29	225	936.496	4	Aircraft1_90%_17.jpg	0	0.9	936.496	940.231	937.944	0
41	1	29	226	940.51	4	Aircraft2_90%_42.jpg	1	0.9	940.51	944.247	941.441	1
41	1	29	227	944.53	4	Aircraft2_90%_44.jpg	1	0.9	944.53	948.269	945.708	1
41	1	29	228	948.548	4	Aircraft1_90%_10.jpg	0	0.9	948.548	952.279	949.929	0
41	1	29	229	952.558	4	Aircraft2_90%_25.jpg	1	0.9	952.558	956.29	953.849	1
41	1	29	230	956.558	4	rest.jpg	n/a	n/a	956.558	960.288	960.558	n/a
41	1	29	231	960.538	4	rest.jpg	n/a	n/a	960.538	964.271	964.538	n/a
41	1	29	232	964.516	4	rest.jpg	n/a	n/a	964.516	968.253	968.516	n/a
41	1	30	233	968.516	4	Aircraft1_70%_25.jpg	0	0.75	968.516	972.251	970.623	0
41	1	30	234	972.514	4	Aircraft2_70%_49.jpg	1	0.75	972.514	976.249	973.516	1
41	1	30	235	976.512	4	Aircraft2_70%_10.jpg	1	0.75	976.512	980.244	978.526	1
41	1	30	236	980.511	4	Aircraft2_70%_12.jpg	1	0.75	980.511	984.241	983.179	1
41	1	30	237	984.528	4	Aircraft2_70%_7.jpg	1	0.75	984.528	988.263	987.396	1
41	1	30	238	988.544	4	rest.jpg	n/a	n/a	988.544	992.276	992.544	n/a
41	1	30	239	992.523	4	rest.jpg	n/a	n/a	992.523	996.26	996.523	n/a
41	1	30	240	996.51	4	rest.jpg	n/a	n/a	996.51	1000.24	1000.51	n/a
