onset	duration	stim_file	stim_lable	levelOfOcclusion	stim_started	stim_stopped	key_time	key_fix	stim_started_1	stim_stopped_1	key_time_1	key_fix_1
39.994	4	Aircraft1_10%_17.jpg	0	0.1	39.994	43.723	41.017	0	39.994	43.723	41.017	0
44.014	4	Aircraft2_10%_42.jpg	1	0.1	44.014	47.75	44.785	1	44.014	47.75	44.785	1
48.019	4	Aircraft2_10%_44.jpg	1	0.1	48.019	51.755	48.687	1	48.019	51.755	48.687	1
52.046	4	Aircraft1_10%_10.jpg	0	0.1	52.046	55.778	52.811	0	52.046	55.778	52.811	0
56.066	4	Aircraft2_10%_25.jpg	1	0.1	56.066	59.802	56.709	1	56.066	59.802	56.709	1
60.074	4	rest.jpg	NaN	NaN	60.074	63.806	64.074	NaN	60.074	63.806	64.074	NaN
64.059	4	rest.jpg	NaN	NaN	64.059	67.788	68.059	NaN	64.059	67.788	68.059	NaN
68.022	4	rest.jpg	NaN	NaN	68.022	71.763	72.022	NaN	68.022	71.763	72.022	NaN
72.029	4	Aircraft1_90%_12.jpg	0	0.9	72.029	75.764	75.045	0	72.029	75.764	75.045	0
76.031	4	Aircraft2_90%_32.jpg	1	0.9	76.031	79.767	76.878	1	76.031	79.767	76.878	1
80.05	4	Aircraft2_90%_48.jpg	1	0.9	80.05	83.782	82.014	1	80.05	83.782	82.014	1
84.062	4	Aircraft1_90%_19.jpg	0	0.9	84.062	87.793	87.356	0	84.062	87.793	87.356	0
88.079	4	Aircraft1_90%_33.jpg	0	0.9	88.079	91.808	91.005	0	88.079	91.808	91.005	0
92.078	4	rest.jpg	NaN	NaN	92.078	95.808	96.078	NaN	92.078	95.808	96.078	NaN
96.055	4	rest.jpg	NaN	NaN	96.055	99.786	100.055	NaN	96.055	99.786	100.055	NaN
100.039	4	rest.jpg	NaN	NaN	100.039	103.778	104.039	NaN	100.039	103.778	104.039	NaN
104.052	4	Aircraft2_70%_33.jpg	1	0.75	104.052	107.787	105.158	1	104.052	107.787	105.158	1
108.084	4	Aircraft2_70%_38.jpg	1	0.75	108.084	111.813	110.507	1	108.084	111.813	110.507	1
112.09	4	Aircraft1_70%_30.jpg	0	0.75	112.09	115.818	113.221	0	112.09	115.818	113.221	0
116.094	4	Aircraft1_70%_41.jpg	0	0.75	116.094	119.823	117.495	0	116.094	119.823	117.495	0
120.097	4	Aircraft1_70%_18.jpg	0	0.75	120.097	123.826	121.303	0	120.097	123.826	121.303	0
124.115	4	rest.jpg	NaN	NaN	124.115	127.85	128.115	NaN	124.115	127.85	128.115	NaN
128.086	4	rest.jpg	NaN	NaN	128.086	131.817	132.086	NaN	128.086	131.817	132.086	NaN
132.054	4	rest.jpg	NaN	NaN	132.054	135.784	136.054	NaN	132.054	135.784	136.054	NaN
136.082	4	Aircraft2_10%_24.jpg	1	0.1	136.082	139.817	136.994	1	136.082	139.817	136.994	1
140.095	4	Aircraft2_10%_2.jpg	1	0.1	140.095	143.824	140.713	1	140.095	143.824	140.713	1
144.103	4	Aircraft2_10%_43.jpg	1	0.1	144.103	147.832	144.731	1	144.103	147.832	144.731	1
148.11	4	Aircraft2_10%_46.jpg	1	0.1	148.11	151.846	148.661	1	148.11	151.846	148.661	1
152.131	4	Aircraft1_10%_42.jpg	0	0.1	152.131	155.86	152.985	0	152.131	155.86	152.985	0
156.148	4	rest.jpg	NaN	NaN	156.148	159.88	160.148	NaN	156.148	159.88	160.148	NaN
160.132	4	rest.jpg	NaN	NaN	160.132	163.862	164.132	NaN	160.132	163.862	164.132	NaN
164.113	4	rest.jpg	NaN	NaN	164.113	167.844	168.113	NaN	164.113	167.844	168.113	NaN
168.113	4	Aircraft2_90%_9.jpg	1	0.9	168.113	171.848	170.973	1	168.113	171.848	170.973	1
172.135	4	Aircraft2_90%_6.jpg	1	0.9	172.135	175.867	174.651	1	172.135	175.867	174.651	1
176.155	4	Aircraft1_90%_23.jpg	0	0.9	176.155	179.884	179.183	0	176.155	179.884	179.183	0
180.173	4	Aircraft1_90%_21.jpg	0	0.9	180.173	183.902	182.424	0	180.173	183.902	182.424	0
184.171	4	Aircraft2_90%_36.jpg	1	0.9	184.171	187.905	186.335	1	184.171	187.905	186.335	1
188.176	4	rest.jpg	NaN	NaN	188.176	191.912	192.176	NaN	188.176	191.912	192.176	NaN
192.163	4	rest.jpg	NaN	NaN	192.163	195.899	196.163	NaN	192.163	195.899	196.163	NaN
196.153	4	rest.jpg	NaN	NaN	196.153	199.882	200.153	NaN	196.153	199.882	200.153	NaN
200.157	4	Aircraft2_70%_31.jpg	1	0.75	200.157	203.893	201.444	1	200.157	203.893	201.444	1
204.189	4	Aircraft1_70%_4.jpg	0	0.75	204.189	207.924	206.292	0	204.189	207.924	206.292	0
208.218	4	Aircraft2_70%_20.jpg	1	0.75	208.218	211.949	210.614	1	208.218	211.949	210.614	1
212.241	4	Aircraft1_70%_7.jpg	0	0.75	212.241	215.971	213.403	0	212.241	215.971	213.403	0
216.267	4	Aircraft1_70%_8.jpg	0	0.75	216.267	219.998	217.731	0	216.267	219.998	217.731	0
220.287	4	rest.jpg	NaN	NaN	220.287	224.022	224.287	NaN	220.287	224.022	224.287	NaN
224.256	4	rest.jpg	NaN	NaN	224.256	227.985	228.256	NaN	224.256	227.985	228.256	NaN
228.219	4	rest.jpg	NaN	NaN	228.219	231.954	232.219	NaN	228.219	231.954	232.219	NaN
232.244	4	Aircraft2_10%_31.jpg	1	0.1	232.244	235.973	233.123	1	232.244	235.973	233.123	1
236.254	4	Aircraft1_10%_4.jpg	0	0.1	236.254	239.983	237.336	0	236.254	239.983	237.336	0
240.27	4	Aircraft2_10%_20.jpg	1	0.1	240.27	244.006	240.872	1	240.27	244.006	240.872	1
244.296	4	Aircraft1_10%_7.jpg	0	0.1	244.296	248.025	245.317	0	244.296	248.025	245.317	0
248.301	4	Aircraft1_10%_8.jpg	0	0.1	248.301	252.032	249.02	0	248.301	252.032	249.02	0
252.323	4	rest.jpg	NaN	NaN	252.323	256.057	256.323	NaN	252.323	256.057	256.323	NaN
256.29	4	rest.jpg	NaN	NaN	256.29	260.026	260.29	NaN	256.29	260.026	260.29	NaN
260.258	4	rest.jpg	NaN	NaN	260.258	263.993	264.258	NaN	260.258	263.993	264.258	NaN
264.281	4	Aircraft2_90%_41.jpg	1	0.9	264.281	268.019	265.301	1	264.281	268.019	265.301	1
268.306	4	Aircraft1_90%_22.jpg	0	0.9	268.306	272.041	270.545	0	268.306	272.041	270.545	0
272.325	4	Aircraft1_90%_44.jpg	0	0.9	272.325	276.054	274.142	0	272.325	276.054	274.142	0
276.343	4	Aircraft1_90%_1.jpg	0	0.9	276.343	280.075	278.338	0	276.343	280.075	278.338	0
280.347	4	Aircraft2_90%_37.jpg	1	0.9	280.347	284.076	281.216	1	280.347	284.076	281.216	1
284.366	4	rest.jpg	NaN	NaN	284.366	288.1	288.366	NaN	284.366	288.1	288.366	NaN
288.334	4	rest.jpg	NaN	NaN	288.334	292.063	292.334	NaN	288.334	292.063	292.334	NaN
292.307	4	rest.jpg	NaN	NaN	292.307	296.042	296.307	NaN	292.307	296.042	296.307	NaN
296.332	4	Aircraft2_70%_41.jpg	1	0.75	296.332	300.064	297.824	1	296.332	300.064	297.824	1
300.355	4	Aircraft1_70%_22.jpg	0	0.75	300.355	304.089	303.473	0	300.355	304.089	303.473	0
304.377	4	Aircraft1_70%_44.jpg	0	0.75	304.377	308.106	305.695	0	304.377	308.106	305.695	0
308.397	4	Aircraft1_70%_1.jpg	0	0.75	308.397	312.126	309.589	0	308.397	312.126	309.589	0
312.399	4	Aircraft2_70%_37.jpg	1	0.75	312.399	316.135	313.297	1	312.399	316.135	313.297	1
316.425	4	rest.jpg	NaN	NaN	316.425	320.154	320.425	NaN	316.425	320.154	320.425	NaN
320.388	4	rest.jpg	NaN	NaN	320.388	324.117	324.388	NaN	320.388	324.117	324.388	NaN
324.368	4	rest.jpg	NaN	NaN	324.368	328.101	328.368	NaN	324.368	328.101	328.368	NaN
328.391	4	Aircraft2_10%_33.jpg	1	0.1	328.391	332.125	329.147	1	328.391	332.125	329.147	1
332.4	4	Aircraft2_10%_38.jpg	1	0.1	332.4	336.132	333.217	1	332.4	336.132	333.217	1
336.418	4	Aircraft1_10%_30.jpg	0	0.1	336.418	340.147	337.4	0	336.418	340.147	337.4	0
340.441	4	Aircraft1_10%_41.jpg	0	0.1	340.441	344.17	341.143	0	340.441	344.17	341.143	0
344.44	4	Aircraft1_10%_18.jpg	0	0.1	344.44	348.174	345.08	0	344.44	348.174	345.08	0
348.461	4	rest.jpg	NaN	NaN	348.461	352.192	352.461	NaN	348.461	352.192	352.461	NaN
352.442	4	rest.jpg	NaN	NaN	352.442	356.174	356.442	NaN	352.442	356.174	356.442	NaN
356.409	4	rest.jpg	NaN	NaN	356.409	360.138	360.409	NaN	356.409	360.138	360.409	NaN
360.405	4	Aircraft2_90%_23.jpg	1	0.9	360.405	364.133	363.313	1	360.405	364.133	363.313	1
364.417	4	Aircraft1_90%_28.jpg	0	0.9	364.417	368.153	366.599	0	364.417	368.153	366.599	0
368.421	4	Aircraft2_90%_13.jpg	1	0.9	368.421	372.15	369.863	1	368.421	372.15	369.863	1
372.436	4	Aircraft1_90%_45.jpg	0	0.9	372.436	376.167	373.502	0	372.436	376.167	373.502	0
376.435	4	Aircraft1_90%_37.jpg	0	0.9	376.435	380.164	378.295	0	376.435	380.164	378.295	0
380.435	4	rest.jpg	NaN	NaN	380.435	384.165	384.435	NaN	380.435	384.165	384.435	NaN
384.399	4	rest.jpg	NaN	NaN	384.399	388.136	388.399	NaN	384.399	388.136	388.399	NaN
388.386	4	rest.jpg	NaN	NaN	388.386	392.12	392.386	NaN	388.386	392.12	392.386	NaN
392.411	4	Aircraft1_70%_2.jpg	0	0.75	392.411	396.14	394.755	0	392.411	396.14	394.755	0
396.414	4	Aircraft1_70%_39.jpg	0	0.75	396.414	400.148	397.944	0	396.414	400.148	397.944	0
400.424	4	Aircraft2_70%_26.jpg	1	0.75	400.424	404.156	401.972	1	400.424	404.156	401.972	1
404.448	4	Aircraft1_70%_15.jpg	0	0.75	404.448	408.187	406.064	0	404.448	408.187	406.064	0
408.474	4	Aircraft2_70%_16.jpg	1	0.75	408.474	412.205	411.076	1	408.474	412.205	411.076	1
412.476	4	rest.jpg	NaN	NaN	412.476	416.205	416.476	NaN	412.476	416.205	416.476	NaN
416.455	4	rest.jpg	NaN	NaN	416.455	420.184	420.455	NaN	416.455	420.184	420.455	NaN
420.417	4	rest.jpg	NaN	NaN	420.417	424.148	424.417	NaN	420.417	424.148	424.417	NaN
424.424	4	Aircraft2_10%_4.jpg	1	0.1	424.424	428.155	425.134	1	424.424	428.155	425.134	1
428.431	4	Aircraft1_10%_43.jpg	0	0.1	428.431	432.16	429.315	0	428.431	432.16	429.315	0
432.436	4	Aircraft1_10%_9.jpg	0	0.1	432.436	436.169	433.183	0	432.436	436.169	433.183	0
436.461	4	Aircraft1_10%_11.jpg	0	0.1	436.461	440.19	437.184	0	436.461	440.19	437.184	0
440.476	4	Aircraft1_10%_50.jpg	0	0.1	440.476	444.205	441.196	0	440.476	444.205	441.196	0
444.476	4	rest.jpg	NaN	NaN	444.476	448.206	448.476	NaN	444.476	448.206	448.476	NaN
448.454	4	rest.jpg	NaN	NaN	448.454	452.183	452.454	NaN	448.454	452.183	452.454	NaN
452.432	4	rest.jpg	NaN	NaN	452.432	456.162	456.432	NaN	452.432	456.162	456.432	NaN
456.429	4	Aircraft1_90%_38.jpg	0	0.9	456.429	460.16	458.454	0	456.429	460.16	458.454	0
460.43	4	Aircraft2_90%_21.jpg	1	0.9	460.43	464.166	462.861	1	460.43	464.166	462.861	1
464.449	4	Aircraft1_90%_16.jpg	0	0.9	464.449	468.183	465.631	0	464.449	468.183	465.631	0
468.467	4	Aircraft1_90%_46.jpg	0	0.9	468.467	472.201	471.008	0	468.467	472.201	471.008	0
472.466	4	Aircraft2_90%_40.jpg	1	0.9	472.466	476.201	474.526	1	472.466	476.201	474.526	1
476.47	4	rest.jpg	NaN	NaN	476.47	480.199	480.47	NaN	476.47	480.199	480.47	NaN
480.446	4	rest.jpg	NaN	NaN	480.446	484.175	484.446	NaN	480.446	484.175	484.446	NaN
484.409	4	rest.jpg	NaN	NaN	484.409	488.138	488.409	NaN	484.409	488.138	488.409	NaN
488.407	4	Aircraft1_70%_36.jpg	0	0.75	488.407	492.136	491.169	0	488.407	492.136	491.169	0
492.428	4	Aircraft1_70%_35.jpg	0	0.75	492.428	496.163	495.49	0	492.428	496.163	495.49	0
496.436	4	Aircraft2_70%_3.jpg	1	0.75	496.436	500.165	497.314	1	496.436	500.165	497.314	1
500.434	4	Aircraft1_70%_5.jpg	0	0.75	500.434	504.166	501.433	0	500.434	504.166	501.433	0
504.459	4	Aircraft1_70%_48.jpg	0	0.75	504.459	508.19	505.601	0	504.459	508.19	505.601	0
508.477	4	rest.jpg	NaN	NaN	508.477	512.215	512.477	NaN	508.477	512.215	512.477	NaN
512.448	4	rest.jpg	NaN	NaN	512.448	516.183	516.448	NaN	512.448	516.183	516.448	NaN
516.418	4	rest.jpg	NaN	NaN	516.418	520.149	520.418	NaN	516.418	520.149	520.418	NaN
520.429	4	Aircraft2_10%_18.jpg	1	0.1	520.429	524.165	521.519	1	520.429	524.165	521.519	1
524.44	4	Aircraft1_10%_29.jpg	0	0.1	524.44	528.174	525.123	0	524.44	528.174	525.123	0
528.444	4	Aircraft2_10%_1.jpg	1	0.1	528.444	532.18	529.051	1	528.444	532.18	529.051	1
532.469	4	Aircraft1_10%_26.jpg	0	0.1	532.469	536.198	533.295	0	532.469	536.198	533.295	0
536.468	4	Aircraft2_10%_34.jpg	1	0.1	536.468	540.199	537.201	1	536.468	540.199	537.201	1
540.469	4	rest.jpg	NaN	NaN	540.469	544.2	544.469	NaN	540.469	544.2	544.469	NaN
544.432	4	rest.jpg	NaN	NaN	544.432	548.166	548.432	NaN	544.432	548.166	548.432	NaN
548.412	4	rest.jpg	NaN	NaN	548.412	552.141	552.412	NaN	548.412	552.141	552.412	NaN
552.406	4	Aircraft2_90%_30.jpg	1	0.9	552.406	556.137	553.434	1	552.406	556.137	553.434	1
556.422	4	Aircraft2_90%_27.jpg	1	0.9	556.422	560.151	558.429	1	556.422	560.151	558.429	1
560.418	4	Aircraft2_90%_50.jpg	1	0.9	560.418	564.147	562.484	1	560.418	564.147	562.484	1
564.432	4	Aircraft2_90%_29.jpg	1	0.9	564.432	568.168	565.721	1	564.432	568.168	565.721	1
568.435	4	Aircraft1_90%_6.jpg	0	0.9	568.435	572.169	569.429	0	568.435	572.169	569.429	0
572.453	4	rest.jpg	NaN	NaN	572.453	576.188	576.453	NaN	572.453	576.188	576.453	NaN
576.422	4	rest.jpg	NaN	NaN	576.422	580.151	580.422	NaN	576.422	580.151	580.422	NaN
580.393	4	rest.jpg	NaN	NaN	580.393	584.122	584.393	NaN	580.393	584.122	584.393	NaN
584.389	4	Aircraft2_70%_17.jpg	1	0.75	584.389	588.12	585.281	1	584.389	588.12	585.281	1
588.405	4	Aircraft2_70%_11.jpg	1	0.75	588.405	592.134	589.183	1	588.405	592.134	589.183	1
592.419	4	Aircraft1_70%_20.jpg	0	0.75	592.419	596.148	593.159	0	592.419	596.148	593.159	0
596.44	4	Aircraft2_70%_47.jpg	1	0.75	596.44	600.176	598.758	1	596.44	600.176	598.758	1
600.464	4	Aircraft2_70%_45.jpg	1	0.75	600.464	604.199	601.772	1	600.464	604.199	601.772	1
604.486	4	rest.jpg	NaN	NaN	604.486	608.215	608.486	NaN	604.486	608.215	608.486	NaN
608.464	4	rest.jpg	NaN	NaN	608.464	612.199	612.464	NaN	608.464	612.199	612.464	NaN
612.441	4	rest.jpg	NaN	NaN	612.441	616.174	616.441	NaN	612.441	616.174	616.441	NaN
616.447	4	Aircraft1_10%_32.jpg	0	0.1	616.447	620.182	617.299	0	616.447	620.182	617.299	0
620.474	4	Aircraft1_10%_49.jpg	0	0.1	620.474	624.211	621.311	0	620.474	624.211	621.311	0
624.485	4	Aircraft2_10%_22.jpg	1	0.1	624.485	628.219	625.135	1	624.485	628.219	625.135	1
628.507	4	Aircraft1_10%_34.jpg	0	0.1	628.507	632.236	629.23	0	628.507	632.236	629.23	0
632.525	4	Aircraft1_10%_14.jpg	0	0.1	632.525	636.254	633.257	0	632.525	636.254	633.257	0
636.542	4	rest.jpg	NaN	NaN	636.542	640.273	640.542	NaN	636.542	640.273	640.542	NaN
640.523	4	rest.jpg	NaN	NaN	640.523	644.257	644.523	NaN	640.523	644.257	644.523	NaN
644.502	4	rest.jpg	NaN	NaN	644.502	648.231	648.502	NaN	644.502	648.231	648.502	NaN
648.503	4	Aircraft1_90%_1.jpg	0	0.9	648.503	652.233	650.997	0	648.503	652.233	650.997	0
652.512	4	Aircraft1_90%_47.jpg	0	0.9	652.512	656.244	654.726	0	652.512	656.244	654.726	0
656.528	4	Aircraft1_90%_40.jpg	0	0.9	656.528	660.262	660.096	0	656.528	660.262	660.096	0
660.527	4	Aircraft1_90%_27.jpg	0	0.9	660.527	664.258	663.443	0	660.527	664.258	663.443	0
664.539	4	Aircraft2_90%_35.jpg	1	0.9	664.539	668.268	666.603	1	664.539	668.268	666.603	1
668.557	4	rest.jpg	NaN	NaN	668.557	672.292	672.557	NaN	668.557	672.292	672.557	NaN
672.526	4	rest.jpg	NaN	NaN	672.526	676.263	676.526	NaN	672.526	676.263	676.526	NaN
676.508	4	rest.jpg	NaN	NaN	676.508	680.237	680.508	NaN	676.508	680.237	680.508	NaN
680.51	4	Aircraft2_70%_23.jpg	1	0.75	680.51	684.239	683.079	1	680.51	684.239	683.079	1
684.528	4	Aircraft1_70%_28.jpg	0	0.75	684.528	688.258	685.665	0	684.528	688.258	685.665	0
688.529	4	Aircraft2_70%_13.jpg	1	0.75	688.529	692.258	689.653	1	688.529	692.258	689.653	1
692.543	4	Aircraft1_70%_45.jpg	0	0.75	692.543	696.272	693.891	0	692.543	696.272	693.891	0
696.545	4	Aircraft1_70%_37.jpg	0	0.75	696.545	700.274	697.545	0	696.545	700.274	697.545	0
700.562	4	rest.jpg	NaN	NaN	700.562	704.291	704.562	NaN	700.562	704.291	704.562	NaN
704.525	4	rest.jpg	NaN	NaN	704.525	708.261	708.525	NaN	704.525	708.261	708.525	NaN
708.498	4	rest.jpg	NaN	NaN	708.498	712.23	712.498	NaN	708.498	712.23	712.498	NaN
712.505	4	Aircraft1_10%_25.jpg	0	0.1	712.505	716.235	713.241	0	712.505	716.235	713.241	0
716.527	4	Aircraft2_10%_49.jpg	1	0.1	716.527	720.259	717.183	1	716.527	720.259	717.183	1
720.549	4	Aircraft2_10%_10.jpg	1	0.1	720.549	724.282	721.243	1	720.549	724.282	721.243	1
724.573	4	Aircraft2_10%_12.jpg	1	0.1	724.573	728.302	725.227	1	724.573	728.302	725.227	1
728.569	4	Aircraft2_10%_7.jpg	1	0.1	728.569	732.304	729.135	1	728.569	732.304	729.135	1
732.586	4	rest.jpg	NaN	NaN	732.586	736.316	736.586	NaN	732.586	736.316	736.586	NaN
736.55	4	rest.jpg	NaN	NaN	736.55	740.287	740.55	NaN	736.55	740.287	740.55	NaN
740.538	4	rest.jpg	NaN	NaN	740.538	744.267	744.538	NaN	740.538	744.267	744.538	NaN
744.534	4	Aircraft2_90%_17.jpg	1	0.9	744.534	748.265	747.245	1	744.534	748.265	747.245	1
748.534	4	Aircraft2_90%_11.jpg	1	0.9	748.534	752.265	751.341	1	748.534	752.265	751.341	1
752.548	4	Aircraft1_90%_20.jpg	0	0.9	752.548	756.283	754.581	0	752.548	756.283	754.581	0
756.568	4	Aircraft2_90%_47.jpg	1	0.9	756.568	760.302	757.681	1	756.568	760.302	757.681	1
760.587	4	Aircraft2_90%_45.jpg	1	0.9	760.587	764.323	761.458	1	760.587	764.323	761.458	1
764.61	4	rest.jpg	NaN	NaN	764.61	768.339	768.61	NaN	764.61	768.339	768.61	NaN
768.589	4	rest.jpg	NaN	NaN	768.589	772.325	772.589	NaN	768.589	772.325	772.589	NaN
772.567	4	rest.jpg	NaN	NaN	772.567	776.296	776.567	NaN	772.567	776.296	776.567	NaN
776.582	4	Aircraft1_70%_38.jpg	0	0.75	776.582	780.318	777.885	0	776.582	780.318	777.885	0
780.586	4	Aircraft2_70%_21.jpg	1	0.75	780.586	784.315	781.407	1	780.586	784.315	781.407	1
784.588	4	Aircraft1_70%_16.jpg	0	0.75	784.588	788.317	785.584	0	784.588	788.317	785.584	0
788.614	4	Aircraft1_70%_46.jpg	0	0.75	788.614	792.343	789.816	0	788.614	792.343	789.816	0
792.63	4	Aircraft2_70%_40.jpg	1	0.75	792.63	796.361	794.004	1	792.63	796.361	794.004	1
796.648	4	rest.jpg	NaN	NaN	796.648	800.383	800.648	NaN	796.648	800.383	800.648	NaN
800.618	4	rest.jpg	NaN	NaN	800.618	804.35	804.618	NaN	800.618	804.35	804.618	NaN
804.599	4	rest.jpg	NaN	NaN	804.599	808.333	808.599	NaN	804.599	808.333	808.599	NaN
808.626	4	Aircraft1_10%_3.jpg	0	0.1	808.626	812.355	809.39	0	808.626	812.355	809.39	0
812.625	4	Aircraft2_10%_28.jpg	1	0.1	812.625	816.357	813.309	1	812.625	816.357	813.309	1
816.632	4	Aircraft1_10%_24.jpg	0	0.1	816.632	820.361	817.31	0	816.632	820.361	817.31	0
820.635	4	Aircraft2_10%_39.jpg	1	0.1	820.635	824.367	821.422	1	820.635	824.367	821.422	1
824.65	4	Aircraft2_10%_8.jpg	1	0.1	824.65	828.386	825.36	1	824.65	828.386	825.36	1
828.657	4	rest.jpg	NaN	NaN	828.657	832.391	832.657	NaN	828.657	832.391	832.657	NaN
832.639	4	rest.jpg	NaN	NaN	832.639	836.371	836.639	NaN	832.639	836.371	836.639	NaN
836.603	4	rest.jpg	NaN	NaN	836.603	840.332	840.603	NaN	836.603	840.332	840.603	NaN
840.598	4	Aircraft1_90%_36.jpg	0	0.9	840.598	844.329	843.022	0	840.598	844.329	843.022	0
844.616	4	Aircraft1_90%_35.jpg	0	0.9	844.616	848.35	845.419	0	844.616	848.35	845.419	0
848.617	4	Aircraft2_90%_3.jpg	1	0.9	848.617	852.346	850.503	1	848.617	852.346	850.503	1
852.612	4	Aircraft1_90%_5.jpg	0	0.9	852.612	856.347	854.415	0	852.612	856.347	854.415	0
856.613	4	Aircraft1_90%_48.jpg	0	0.9	856.613	860.347	858.768	0	856.613	860.347	858.768	0
860.635	4	rest.jpg	NaN	NaN	860.635	864.368	864.635	NaN	860.635	864.368	864.635	NaN
864.616	4	rest.jpg	NaN	NaN	864.616	868.345	868.616	NaN	864.616	868.345	868.616	NaN
868.59	4	rest.jpg	NaN	NaN	868.59	872.32	872.59	NaN	868.59	872.32	872.59	NaN
872.61	4	Aircraft2_70%_30.jpg	1	0.75	872.61	876.339	874.296	1	872.61	876.339	874.296	1
876.631	4	Aircraft2_70%_27.jpg	1	0.75	876.631	880.365	877.447	1	876.631	880.365	877.447	1
880.648	4	Aircraft2_70%_50.jpg	1	0.75	880.648	884.377	881.431	1	880.648	884.377	881.431	1
884.663	4	Aircraft2_70%_29.jpg	1	0.75	884.663	888.397	885.256	1	884.663	888.397	885.256	1
888.692	4	Aircraft1_70%_6.jpg	0	0.75	888.692	892.421	889.827	0	888.692	892.421	889.827	0
892.714	4	rest.jpg	NaN	NaN	892.714	896.448	896.714	NaN	892.714	896.448	896.714	NaN
896.682	4	rest.jpg	NaN	NaN	896.682	900.41	900.682	NaN	896.682	900.41	900.682	NaN
900.657	4	rest.jpg	NaN	NaN	900.657	904.386	904.657	NaN	900.657	904.386	904.657	NaN
904.658	4	Aircraft2_10%_14.jpg	1	0.1	904.658	908.387	905.578	1	904.658	908.387	905.578	1
908.674	4	Aircraft2_10%_5.jpg	1	0.1	908.674	912.408	909.384	1	908.674	912.408	909.384	1
912.697	4	Aircraft2_10%_15.jpg	1	0.1	912.697	916.426	913.28	1	912.697	916.426	913.28	1
916.716	4	Aircraft2_10%_19.jpg	1	0.1	916.716	920.446	917.244	1	916.716	920.446	917.244	1
920.739	4	Aircraft1_10%_31.jpg	0	0.1	920.739	924.468	921.416	0	920.739	924.468	921.416	0
924.738	4	rest.jpg	NaN	NaN	924.738	928.475	928.738	NaN	924.738	928.475	928.738	NaN
928.726	4	rest.jpg	NaN	NaN	928.726	932.458	932.726	NaN	928.726	932.458	932.726	NaN
932.701	4	rest.jpg	NaN	NaN	932.701	936.429	936.701	NaN	932.701	936.429	936.701	NaN
936.714	4	Aircraft1_90%_2.jpg	0	0.9	936.714	940.443	938.118	0	936.714	940.443	938.118	0
940.729	4	Aircraft1_90%_39.jpg	0	0.9	940.729	944.46	941.718	0	940.729	944.46	941.718	0
944.744	4	Aircraft2_90%_26.jpg	1	0.9	944.744	948.482	945.626	1	944.744	948.482	945.626	1
948.773	4	Aircraft1_90%_15.jpg	0	0.9	948.773	952.508	950.064	0	948.773	952.508	950.064	0
952.79	4	Aircraft2_90%_16.jpg	1	0.9	952.79	956.521	955.63	1	952.79	956.521	955.63	1
956.792	4	rest.jpg	NaN	NaN	956.792	960.523	960.792	NaN	956.792	960.523	960.792	NaN
960.757	4	rest.jpg	NaN	NaN	960.757	964.488	964.757	NaN	960.757	964.488	964.757	NaN
964.736	4	rest.jpg	NaN	NaN	964.736	968.465	968.736	NaN	964.736	968.465	968.736	NaN
968.754	4	Aircraft1_70%_1.jpg	0	0.75	968.754	972.482	969.948	0	968.754	972.482	969.948	0
972.753	4	Aircraft1_70%_47.jpg	0	0.75	972.753	976.488	973.667	0	972.753	976.488	973.667	0
976.759	4	Aircraft1_70%_40.jpg	0	0.75	976.759	980.49	978.765	0	976.759	980.49	978.765	0
980.77	4	Aircraft1_70%_27.jpg	0	0.75	980.77	984.499	982.653	0	980.77	984.499	982.653	0
984.792	4	Aircraft2_70%_35.jpg	1	0.75	984.792	988.528	986.074	1	984.792	988.528	986.074	1
988.814	4	rest.jpg	NaN	NaN	988.814	992.543	992.814	NaN	988.814	992.543	992.814	NaN
992.789	4	rest.jpg	NaN	NaN	992.789	996.52	996.789	NaN	992.789	996.52	996.789	NaN
996.771	4	rest.jpg	NaN	NaN	996.771	1000.506	1000.771	NaN	996.771	1000.506	1000.771	NaN
