sub	run	block	trail	oneset	duration	stim_file	stim_lable	level of occlusion	stim_started	stim_stopped	key_time	key_fix
23	2	1	1	39.987	4	Aircraft1_10%_17.jpg	0	0.1	39.987	43.726	41.075	0
23	2	1	2	43.994	4	Aircraft2_10%_42.jpg	1	0.1	43.994	47.727	44.709	1
23	2	1	3	47.991	4	Aircraft2_10%_44.jpg	1	0.1	47.991	51.728	48.718	1
23	2	1	4	51.997	4	Aircraft1_10%_10.jpg	0	0.1	51.997	55.729	52.695	0
23	2	1	5	55.991	4	Aircraft2_10%_25.jpg	1	0.1	55.991	59.724	57.017	1
23	2	1	6	59.989	4	rest.jpg	n/a	n/a	59.989	63.722	63.989	n/a
23	2	1	7	63.972	4	rest.jpg	n/a	n/a	63.972	67.709	67.972	n/a
23	2	1	8	67.959	4	rest.jpg	n/a	n/a	67.959	71.697	71.959	n/a
23	2	2	9	71.958	4	Aircraft1_90%_12.jpg	0	0.9	71.958	75.689	74.54	0
23	2	2	10	75.972	4	Aircraft2_90%_32.jpg	1	0.9	75.972	79.703	77.829	1
23	2	2	11	79.965	4	Aircraft2_90%_48.jpg	1	0.9	79.965	83.704	81.333	1
23	2	2	12	83.965	4	Aircraft1_90%_19.jpg	0	0.9	83.965	87.701	86.421	0
23	2	2	13	87.98	4	Aircraft1_90%_33.jpg	0	0.9	87.98	91.71	91.069	0
23	2	2	14	91.993	4	rest.jpg	n/a	n/a	91.993	95.732	95.993	n/a
23	2	2	15	95.961	4	rest.jpg	n/a	n/a	95.961	99.703	99.961	n/a
23	2	2	16	99.951	4	rest.jpg	n/a	n/a	99.951	103.686	103.951	n/a
23	2	3	17	103.95	4	Aircraft2_70%_33.jpg	1	0.75	103.95	107.689	105.971	1
23	2	3	18	107.972	4	Aircraft2_70%_38.jpg	1	0.75	107.972	111.708	109.686	1
23	2	3	19	111.99	4	Aircraft1_70%_30.jpg	0	0.75	111.99	115.727	113.653	0
23	2	3	20	116.01	4	Aircraft1_70%_41.jpg	0	0.75	116.01	119.747	118.234	0
23	2	3	21	120.015	4	Aircraft1_70%_18.jpg	0	0.75	120.015	123.746	122.133	0
23	2	3	22	124.03	4	rest.jpg	n/a	n/a	124.03	127.77	128.03	n/a
23	2	3	23	128	4	rest.jpg	n/a	n/a	128	131.731	132	n/a
23	2	3	24	131.961	4	rest.jpg	n/a	n/a	131.961	135.699	135.961	n/a
23	2	4	25	135.965	4	Aircraft2_10%_24.jpg	1	0.1	135.965	139.703	137.142	1
23	2	4	26	139.97	4	Aircraft2_10%_2.jpg	1	0.1	139.97	143.702	140.791	1
23	2	4	27	143.992	4	Aircraft2_10%_43.jpg	1	0.1	143.992	147.731	144.73	1
23	2	4	28	147.999	4	Aircraft2_10%_46.jpg	1	0.1	147.999	151.731	149.282	1
23	2	4	29	152.007	4	Aircraft1_10%_42.jpg	0	0.1	152.007	155.741	153.029	0
23	2	4	30	156.023	4	rest.jpg	n/a	n/a	156.023	159.754	160.023	n/a
23	2	4	31	160	4	rest.jpg	n/a	n/a	160	163.732	164	n/a
23	2	4	32	163.966	4	rest.jpg	n/a	n/a	163.966	167.698	167.966	n/a
23	2	5	33	167.977	4	Aircraft2_90%_9.jpg	1	0.9	167.977	171.709	169.978	1
23	2	5	34	171.985	4	Aircraft2_90%_6.jpg	1	0.9	171.985	175.721	174.367	1
23	2	5	35	175.989	4	Aircraft1_90%_23.jpg	0	0.9	175.989	179.722	179.989	0
23	2	5	36	180.004	4	Aircraft1_90%_21.jpg	0	0.9	180.004	183.737	180.011	0
23	2	5	37	184.013	4	Aircraft2_90%_36.jpg	1	0.9	184.013	187.747	185.444	1
23	2	5	38	188.033	4	rest.jpg	n/a	n/a	188.033	191.768	192.033	n/a
23	2	5	39	192	4	rest.jpg	n/a	n/a	192	195.735	196	n/a
23	2	5	40	195.979	4	rest.jpg	n/a	n/a	195.979	199.714	199.979	n/a
23	2	6	41	199.999	4	Aircraft2_70%_31.jpg	1	0.75	199.999	203.732	201.916	1
23	2	6	42	204.017	4	Aircraft1_70%_4.jpg	0	0.75	204.017	207.749	205.093	0
23	2	6	43	208.034	4	Aircraft2_70%_20.jpg	1	0.75	208.034	211.765	209.793	1
23	2	6	44	212.033	4	Aircraft1_70%_7.jpg	0	0.75	212.033	215.772	213.171	0
23	2	6	45	216.039	4	Aircraft1_70%_8.jpg	0	0.75	216.039	219.773	217.885	0
23	2	6	46	220.061	4	rest.jpg	n/a	n/a	220.061	223.792	224.061	n/a
23	2	6	47	224.049	4	rest.jpg	n/a	n/a	224.049	227.782	228.049	n/a
23	2	6	48	228.03	4	rest.jpg	n/a	n/a	228.03	231.764	232.03	n/a
23	2	7	49	232.03	4	Aircraft2_10%_31.jpg	1	0.1	232.03	235.768	233.65	1
23	2	7	50	236.037	4	Aircraft1_10%_4.jpg	0	0.1	236.037	239.768	236.962	0
23	2	7	51	240.054	4	Aircraft2_10%_20.jpg	1	0.1	240.054	243.79	240.873	1
23	2	7	52	244.081	4	Aircraft1_10%_7.jpg	0	0.1	244.081	247.812	244.83	0
23	2	7	53	248.083	4	Aircraft1_10%_8.jpg	0	0.1	248.083	251.816	248.806	0
23	2	7	54	252.107	4	rest.jpg	n/a	n/a	252.107	255.836	256.107	n/a
23	2	7	55	256.073	4	rest.jpg	n/a	n/a	256.073	259.809	260.073	n/a
23	2	7	56	260.06	4	rest.jpg	n/a	n/a	260.06	263.794	264.06	n/a
23	2	8	57	264.077	4	Aircraft2_90%_41.jpg	1	0.9	264.077	267.809	265.223	1
23	2	8	58	268.092	4	Aircraft1_90%_22.jpg	0	0.9	268.092	271.824	269.361	0
23	2	8	59	272.108	4	Aircraft1_90%_44.jpg	0	0.9	272.108	275.838	273.269	0
23	2	8	60	276.102	4	Aircraft1_90%_1.jpg	0	0.9	276.102	279.836	277.468	0
23	2	8	61	280.119	4	Aircraft2_90%_37.jpg	1	0.9	280.119	283.848	281.645	1
23	2	8	62	284.14	4	rest.jpg	n/a	n/a	284.14	287.874	288.14	n/a
23	2	8	63	288.128	4	rest.jpg	n/a	n/a	288.128	291.857	292.128	n/a
23	2	8	64	292.105	4	rest.jpg	n/a	n/a	292.105	295.836	296.105	n/a
23	2	9	65	296.121	4	Aircraft2_70%_41.jpg	1	0.75	296.121	299.85	297.905	1
23	2	9	66	300.14	4	Aircraft1_70%_22.jpg	0	0.75	300.14	303.869	301.195	0
23	2	9	67	304.14	4	Aircraft1_70%_44.jpg	0	0.75	304.14	307.869	305.134	0
23	2	9	68	308.157	4	Aircraft1_70%_1.jpg	0	0.75	308.157	311.887	309.875	0
23	2	9	69	312.173	4	Aircraft2_70%_37.jpg	1	0.75	312.173	315.908	313.578	1
23	2	9	70	316.193	4	rest.jpg	n/a	n/a	316.193	319.928	320.193	n/a
23	2	9	71	320.179	4	rest.jpg	n/a	n/a	320.179	323.913	324.179	n/a
23	2	9	72	324.148	4	rest.jpg	n/a	n/a	324.148	327.879	328.148	n/a
23	2	10	73	328.149	4	Aircraft2_10%_33.jpg	1	0.1	328.149	331.885	329.544	1
23	2	10	74	332.155	4	Aircraft2_10%_38.jpg	1	0.1	332.155	335.89	332.848	1
23	2	10	75	336.176	4	Aircraft1_10%_30.jpg	0	0.1	336.176	339.914	336.943	0
23	2	10	76	340.202	4	Aircraft1_10%_41.jpg	0	0.1	340.202	343.934	341.08	0
23	2	10	77	344.223	4	Aircraft1_10%_18.jpg	0	0.1	344.223	347.953	345.363	0
23	2	10	78	348.222	4	rest.jpg	n/a	n/a	348.222	351.953	352.222	n/a
23	2	10	79	352.189	4	rest.jpg	n/a	n/a	352.189	355.918	356.189	n/a
23	2	10	80	356.171	4	rest.jpg	n/a	n/a	356.171	359.903	360.171	n/a
23	2	11	81	360.167	4	Aircraft2_90%_23.jpg	1	0.9	360.167	363.897	361.61	1
23	2	11	82	364.182	4	Aircraft1_90%_28.jpg	0	0.9	364.182	367.917	366.157	0
23	2	11	83	368.198	4	Aircraft2_90%_13.jpg	1	0.9	368.198	371.928	370.85	1
23	2	11	84	372.216	4	Aircraft1_90%_45.jpg	0	0.9	372.216	375.946	374.268	0
23	2	11	85	376.231	4	Aircraft1_90%_37.jpg	0	0.9	376.231	379.963	378.309	0
23	2	11	86	380.232	4	rest.jpg	n/a	n/a	380.232	383.968	384.232	n/a
23	2	11	87	384.205	4	rest.jpg	n/a	n/a	384.205	387.936	388.205	n/a
23	2	11	88	388.186	4	rest.jpg	n/a	n/a	388.186	391.923	392.186	n/a
23	2	12	89	392.211	4	Aircraft1_70%_2.jpg	0	0.75	392.211	395.941	394.985	0
23	2	12	90	396.231	4	Aircraft1_70%_39.jpg	0	0.75	396.231	399.96	397.975	0
23	2	12	91	400.23	4	Aircraft2_70%_26.jpg	1	0.75	400.23	403.961	401.667	1
23	2	12	92	404.233	4	Aircraft1_70%_15.jpg	0	0.75	404.233	407.965	405.468	0
23	2	12	93	408.257	4	Aircraft2_70%_16.jpg	1	0.75	408.257	411.991	410.011	1
23	2	12	94	412.275	4	rest.jpg	n/a	n/a	412.275	416.008	416.275	n/a
23	2	12	95	416.241	4	rest.jpg	n/a	n/a	416.241	419.97	420.241	n/a
23	2	12	96	420.223	4	rest.jpg	n/a	n/a	420.223	423.954	424.223	n/a
23	2	13	97	424.226	4	Aircraft2_10%_4.jpg	1	0.1	424.226	427.956	426.59	1
23	2	13	98	428.228	4	Aircraft1_10%_43.jpg	0	0.1	428.228	431.964	429.161	0
23	2	13	99	432.235	4	Aircraft1_10%_9.jpg	0	0.1	432.235	435.964	432.94	0
23	2	13	100	436.235	4	Aircraft1_10%_11.jpg	0	0.1	436.235	439.967	436.837	0
23	2	13	101	440.253	4	Aircraft1_10%_50.jpg	0	0.1	440.253	443.982	440.894	0
23	2	13	102	444.27	4	rest.jpg	n/a	n/a	444.27	448	448.27	n/a
23	2	13	103	448.254	4	rest.jpg	n/a	n/a	448.254	451.99	452.254	n/a
23	2	13	104	452.236	4	rest.jpg	n/a	n/a	452.236	455.965	456.236	n/a
23	2	14	105	456.25	4	Aircraft1_90%_38.jpg	0	0.9	456.25	459.985	458.025	0
23	2	14	106	460.271	4	Aircraft2_90%_21.jpg	1	0.9	460.271	464.009	461.538	1
23	2	14	107	464.276	4	Aircraft1_90%_16.jpg	0	0.9	464.276	468.009	465.49	0
23	2	14	108	468.269	4	Aircraft1_90%_46.jpg	0	0.9	468.269	472.006	470.09	0
23	2	14	109	472.269	4	Aircraft2_90%_40.jpg	1	0.9	472.269	475.998	473.883	1
23	2	14	110	476.287	4	rest.jpg	n/a	n/a	476.287	480.018	480.287	n/a
23	2	14	111	480.252	4	rest.jpg	n/a	n/a	480.252	483.983	484.252	n/a
23	2	14	112	484.239	4	rest.jpg	n/a	n/a	484.239	487.977	488.239	n/a
23	2	15	113	488.245	4	Aircraft1_70%_36.jpg	0	0.75	488.245	491.976	490.583	0
23	2	15	114	492.247	4	Aircraft1_70%_35.jpg	0	0.75	492.247	495.977	493.208	0
23	2	15	115	496.248	4	Aircraft2_70%_3.jpg	1	0.75	496.248	499.977	498.112	1
23	2	15	116	500.245	4	Aircraft1_70%_5.jpg	0	0.75	500.245	503.981	501.898	0
23	2	15	117	504.251	4	Aircraft1_70%_48.jpg	0	0.75	504.251	507.986	506.27	0
23	2	15	118	508.274	4	rest.jpg	n/a	n/a	508.274	512.01	512.274	n/a
23	2	15	119	512.24	4	rest.jpg	n/a	n/a	512.24	515.969	516.24	n/a
23	2	15	120	516.206	4	rest.jpg	n/a	n/a	516.206	519.936	520.206	n/a
23	2	16	121	520.225	4	Aircraft2_10%_18.jpg	1	0.1	520.225	523.955	521.42	1
23	2	16	122	524.223	4	Aircraft1_10%_29.jpg	0	0.1	524.223	527.952	525.09	0
23	2	16	123	528.223	4	Aircraft2_10%_1.jpg	1	0.1	528.223	531.952	529.173	1
23	2	16	124	532.226	4	Aircraft1_10%_26.jpg	0	0.1	532.226	535.957	532.935	0
23	2	16	125	536.224	4	Aircraft2_10%_34.jpg	1	0.1	536.224	539.96	537.752	1
23	2	16	126	540.247	4	rest.jpg	n/a	n/a	540.247	543.982	544.247	n/a
23	2	16	127	544.235	4	rest.jpg	n/a	n/a	544.235	547.964	548.235	n/a
23	2	16	128	548.218	4	rest.jpg	n/a	n/a	548.218	551.948	552.218	n/a
23	2	17	129	552.216	4	Aircraft2_90%_30.jpg	1	0.9	552.216	555.946	553.442	1
23	2	17	130	556.232	4	Aircraft2_90%_27.jpg	1	0.9	556.232	559.964	557.36	1
23	2	17	131	560.23	4	Aircraft2_90%_50.jpg	1	0.9	560.23	563.961	562.6	1
23	2	17	132	564.246	4	Aircraft2_90%_29.jpg	1	0.9	564.246	567.978	565.445	1
23	2	17	133	568.244	4	Aircraft1_90%_6.jpg	0	0.9	568.244	571.976	569.55	0
23	2	17	134	572.262	4	rest.jpg	n/a	n/a	572.262	575.996	576.262	n/a
23	2	17	135	576.248	4	rest.jpg	n/a	n/a	576.248	579.98	580.248	n/a
23	2	17	136	580.217	4	rest.jpg	n/a	n/a	580.217	583.953	584.217	n/a
23	2	18	137	584.233	4	Aircraft2_70%_17.jpg	1	0.75	584.233	587.969	585.43	1
23	2	18	138	588.239	4	Aircraft2_70%_11.jpg	1	0.75	588.239	591.973	590.398	1
23	2	18	139	592.259	4	Aircraft1_70%_20.jpg	0	0.75	592.259	595.989	593.392	0
23	2	18	140	596.281	4	Aircraft2_70%_47.jpg	1	0.75	596.281	600.011	598.335	1
23	2	18	141	600.277	4	Aircraft2_70%_45.jpg	1	0.75	600.277	604.005	602.428	1
23	2	18	142	604.291	4	rest.jpg	n/a	n/a	604.291	608.02	608.291	n/a
23	2	18	143	608.261	4	rest.jpg	n/a	n/a	608.261	611.993	612.261	n/a
23	2	18	144	612.245	4	rest.jpg	n/a	n/a	612.245	615.977	616.245	n/a
23	2	19	145	616.267	4	Aircraft1_10%_32.jpg	0	0.1	616.267	620.005	617.348	0
23	2	19	146	620.295	4	Aircraft1_10%_49.jpg	0	0.1	620.295	624.024	621.076	0
23	2	19	147	624.31	4	Aircraft2_10%_22.jpg	1	0.1	624.31	628.046	625.242	1
23	2	19	148	628.33	4	Aircraft1_10%_34.jpg	0	0.1	628.33	632.064	629.042	0
23	2	19	149	632.351	4	Aircraft1_10%_14.jpg	0	0.1	632.351	636.08	633.304	0
23	2	19	150	636.364	4	rest.jpg	n/a	n/a	636.364	640.092	640.364	n/a
23	2	19	151	640.341	4	rest.jpg	n/a	n/a	640.341	644.077	644.341	n/a
23	2	19	152	644.319	4	rest.jpg	n/a	n/a	644.319	648.055	648.319	n/a
23	2	20	153	648.335	4	Aircraft1_90%_1.jpg	0	0.9	648.335	652.069	649.929	0
23	2	20	154	652.331	4	Aircraft1_90%_47.jpg	0	0.9	652.331	656.066	654.912	0
23	2	20	155	656.343	4	Aircraft1_90%_40.jpg	0	0.9	656.343	660.074	657.397	0
23	2	20	156	660.356	4	Aircraft1_90%_27.jpg	0	0.9	660.356	664.088	662.055	0
23	2	20	157	664.37	4	Aircraft2_90%_35.jpg	1	0.9	664.37	668.099	667.3	1
23	2	20	158	668.368	4	rest.jpg	n/a	n/a	668.368	672.096	672.368	n/a
23	2	20	159	672.326	4	rest.jpg	n/a	n/a	672.326	676.056	676.326	n/a
23	2	20	160	676.299	4	rest.jpg	n/a	n/a	676.299	680.031	680.299	n/a
23	2	21	161	680.297	4	Aircraft2_70%_23.jpg	1	0.75	680.297	684.026	681.695	1
23	2	21	162	684.293	4	Aircraft1_70%_28.jpg	0	0.75	684.293	688.022	685.598	0
23	2	21	163	688.302	4	Aircraft2_70%_13.jpg	1	0.75	688.302	692.038	689.941	1
23	2	21	164	692.32	4	Aircraft1_70%_45.jpg	0	0.75	692.32	696.051	694.304	0
23	2	21	165	696.319	4	Aircraft1_70%_37.jpg	0	0.75	696.319	700.05	697.261	0
23	2	21	166	700.332	4	rest.jpg	n/a	n/a	700.332	704.061	704.332	n/a
23	2	21	167	704.293	4	rest.jpg	n/a	n/a	704.293	708.027	708.293	n/a
23	2	21	168	708.272	4	rest.jpg	n/a	n/a	708.272	712.002	712.272	n/a
23	2	22	169	712.295	4	Aircraft1_10%_25.jpg	0	0.1	712.295	716.024	713.227	0
23	2	22	170	716.313	4	Aircraft2_10%_49.jpg	1	0.1	716.313	720.047	717.447	1
23	2	22	171	720.316	4	Aircraft2_10%_10.jpg	1	0.1	720.316	724.045	721.199	1
23	2	22	172	724.313	4	Aircraft2_10%_12.jpg	1	0.1	724.313	728.048	725.003	1
23	2	22	173	728.312	4	Aircraft2_10%_7.jpg	1	0.1	728.312	732.043	729.088	1
23	2	22	174	732.307	4	rest.jpg	n/a	n/a	732.307	736.039	736.307	n/a
23	2	22	175	736.29	4	rest.jpg	n/a	n/a	736.29	740.018	740.29	n/a
23	2	22	176	740.265	4	rest.jpg	n/a	n/a	740.265	743.994	744.265	n/a
23	2	23	177	744.274	4	Aircraft2_90%_17.jpg	1	0.9	744.274	748.009	746.044	1
23	2	23	178	748.269	4	Aircraft2_90%_11.jpg	1	0.9	748.269	752.003	751.431	1
23	2	23	179	752.284	4	Aircraft1_90%_20.jpg	0	0.9	752.284	756.013	753.996	0
23	2	23	180	756.295	4	Aircraft2_90%_47.jpg	1	0.9	756.295	760.024	757.669	1
23	2	23	181	760.285	4	Aircraft2_90%_45.jpg	1	0.9	760.285	764.014	762.391	1
23	2	23	182	764.293	4	rest.jpg	n/a	n/a	764.293	768.022	768.293	n/a
23	2	23	183	768.254	4	rest.jpg	n/a	n/a	768.254	771.983	772.254	n/a
23	2	23	184	772.219	4	rest.jpg	n/a	n/a	772.219	775.948	776.219	n/a
23	2	24	185	776.215	4	Aircraft1_70%_38.jpg	0	0.75	776.215	779.945	778.634	0
23	2	24	186	780.23	4	Aircraft2_70%_21.jpg	1	0.75	780.23	783.963	781.364	1
23	2	24	187	784.25	4	Aircraft1_70%_16.jpg	0	0.75	784.25	787.981	785.917	0
23	2	24	188	788.276	4	Aircraft1_70%_46.jpg	0	0.75	788.276	792.007	789.249	0
23	2	24	189	792.274	4	Aircraft2_70%_40.jpg	1	0.75	792.274	796.004	793.318	1
23	2	24	190	796.292	4	rest.jpg	n/a	n/a	796.292	800.029	800.292	n/a
23	2	24	191	800.278	4	rest.jpg	n/a	n/a	800.278	804.009	804.278	n/a
23	2	24	192	804.258	4	rest.jpg	n/a	n/a	804.258	807.987	808.258	n/a
23	2	25	193	808.274	4	Aircraft1_10%_3.jpg	0	0.1	808.274	812.005	809.383	0
23	2	25	194	812.286	4	Aircraft2_10%_28.jpg	1	0.1	812.286	816.022	813.559	1
23	2	25	195	816.305	4	Aircraft1_10%_24.jpg	0	0.1	816.305	820.036	817.047	0
23	2	25	196	820.323	4	Aircraft2_10%_39.jpg	1	0.1	820.323	824.052	821.177	1
23	2	25	197	824.316	4	Aircraft2_10%_8.jpg	1	0.1	824.316	828.048	825.373	1
23	2	25	198	828.332	4	rest.jpg	n/a	n/a	828.332	832.064	832.332	n/a
23	2	25	199	832.314	4	rest.jpg	n/a	n/a	832.314	836.048	836.314	n/a
23	2	25	200	836.283	4	rest.jpg	n/a	n/a	836.283	840.018	840.283	n/a
23	2	26	201	840.279	4	Aircraft1_90%_36.jpg	0	0.9	840.279	844.008	842.144	0
23	2	26	202	844.268	4	Aircraft1_90%_35.jpg	0	0.9	844.268	848.001	846.225	0
23	2	26	203	848.28	4	Aircraft2_90%_3.jpg	1	0.9	848.28	852.015	850.075	1
23	2	26	204	852.295	4	Aircraft1_90%_5.jpg	0	0.9	852.295	856.029	854.836	0
23	2	26	205	856.29	4	Aircraft1_90%_48.jpg	0	0.9	856.29	860.028	859.1	0
23	2	26	206	860.312	4	rest.jpg	n/a	n/a	860.312	864.048	864.312	n/a
23	2	26	207	864.282	4	rest.jpg	n/a	n/a	864.282	868.011	868.282	n/a
23	2	26	208	868.243	4	rest.jpg	n/a	n/a	868.243	871.972	872.243	n/a
23	2	27	209	872.258	4	Aircraft2_70%_30.jpg	1	0.75	872.258	875.993	874.004	1
23	2	27	210	876.262	4	Aircraft2_70%_27.jpg	1	0.75	876.262	880.001	877.18	1
23	2	27	211	880.283	4	Aircraft2_70%_50.jpg	1	0.75	880.283	884.012	881.185	1
23	2	27	212	884.275	4	Aircraft2_70%_29.jpg	1	0.75	884.275	888.007	885.531	1
23	2	27	213	888.291	4	Aircraft1_70%_6.jpg	0	0.75	888.291	892.025	889.728	0
23	2	27	214	892.309	4	rest.jpg	n/a	n/a	892.309	896.045	896.309	n/a
23	2	27	215	896.277	4	rest.jpg	n/a	n/a	896.277	900.012	900.277	n/a
23	2	27	216	900.261	4	rest.jpg	n/a	n/a	900.261	903.99	904.261	n/a
23	2	28	217	904.262	4	Aircraft2_10%_14.jpg	1	0.1	904.262	908.001	905.299	1
23	2	28	218	908.285	4	Aircraft2_10%_5.jpg	1	0.1	908.285	912.013	909.143	1
23	2	28	219	912.298	4	Aircraft2_10%_15.jpg	1	0.1	912.298	916.027	913.066	1
23	2	28	220	916.289	4	Aircraft2_10%_19.jpg	1	0.1	916.289	920.02	917.608	1
23	2	28	221	920.287	4	Aircraft1_10%_31.jpg	0	0.1	920.287	924.022	921.072	0
23	2	28	222	924.303	4	rest.jpg	n/a	n/a	924.303	928.032	928.303	n/a
23	2	28	223	928.282	4	rest.jpg	n/a	n/a	928.282	932.013	932.282	n/a
23	2	28	224	932.263	4	rest.jpg	n/a	n/a	932.263	935.992	936.263	n/a
23	2	29	225	936.272	4	Aircraft1_90%_2.jpg	0	0.9	936.272	940.002	937.94	0
23	2	29	226	940.265	4	Aircraft1_90%_39.jpg	0	0.9	940.265	944	941.918	0
23	2	29	227	944.278	4	Aircraft2_90%_26.jpg	1	0.9	944.278	948.014	945.697	1
23	2	29	228	948.274	4	Aircraft1_90%_15.jpg	0	0.9	948.274	952.003	950.223	0
23	2	29	229	952.265	4	Aircraft2_90%_16.jpg	1	0.9	952.265	956	954.293	1
23	2	29	230	956.266	4	rest.jpg	n/a	n/a	956.266	960	960.266	n/a
23	2	29	231	960.235	4	rest.jpg	n/a	n/a	960.235	963.964	964.235	n/a
23	2	29	232	964.217	4	rest.jpg	n/a	n/a	964.217	967.949	968.217	n/a
23	2	30	233	968.246	4	Aircraft1_70%_1.jpg	0	0.75	968.246	971.981	969.554	0
23	2	30	234	972.26	4	Aircraft1_70%_47.jpg	0	0.75	972.26	975.993	973.331	0
23	2	30	235	976.289	4	Aircraft1_70%_40.jpg	0	0.75	976.289	980.027	977.952	0
23	2	30	236	980.314	4	Aircraft1_70%_27.jpg	0	0.75	980.314	984.049	982.251	0
23	2	30	237	984.334	4	Aircraft2_70%_35.jpg	1	0.75	984.334	988.063	986.33	1
23	2	30	238	988.35	4	rest.jpg	n/a	n/a	988.35	992.079	992.35	n/a
23	2	30	239	992.329	4	rest.jpg	n/a	n/a	992.329	996.058	996.329	n/a
23	2	30	240	996.292	4	rest.jpg	n/a	n/a	996.292	1000.023	1000.292	n/a
