onset	duration	stim_file	stim_lable	levelOfOcclusion	stim_started	stim_stopped	key_time	key_fix	stim_started_1	stim_stopped_1	key_time_1	key_fix_1
40.008	4	Aircraft1_10%_17.jpg	0	0.1	40.008	43.74	41.656	0	40.008	43.74	41.656	0
44.013	4	Aircraft2_10%_42.jpg	1	0.1	44.013	47.748	45.337	1	44.013	47.748	45.337	1
48.033	4	Aircraft2_10%_44.jpg	1	0.1	48.033	51.766	48.536	1	48.033	51.766	48.536	1
52.063	4	Aircraft1_10%_10.jpg	0	0.1	52.063	55.792	52.805	0	52.063	55.792	52.805	0
56.08	4	Aircraft2_10%_25.jpg	1	0.1	56.08	59.816	56.85	1	56.08	59.816	56.85	1
60.107	4	rest.jpg	NaN	NaN	60.107	63.841	64.107	NaN	60.107	63.841	64.107	NaN
64.08	4	rest.jpg	NaN	NaN	64.08	67.81	68.08	NaN	64.08	67.81	68.08	NaN
68.056	4	rest.jpg	NaN	NaN	68.056	71.788	72.056	NaN	68.056	71.788	72.056	NaN
72.076	4	Aircraft1_90%_12.jpg	0	0.9	72.076	75.812	74.161	0	72.076	75.812	74.161	0
76.081	4	Aircraft2_90%_32.jpg	1	0.9	76.081	79.809	77.675	1	76.081	79.809	77.675	1
80.088	4	Aircraft2_90%_48.jpg	1	0.9	80.088	83.817	80.79	1	80.088	83.817	80.79	1
84.083	4	Aircraft1_90%_19.jpg	0	0.9	84.083	87.814	85.66	0	84.083	87.814	85.66	0
88.097	4	Aircraft1_90%_33.jpg	0	0.9	88.097	91.828	90.694	0	88.097	91.828	90.694	0
92.118	4	rest.jpg	NaN	NaN	92.118	95.854	96.118	NaN	92.118	95.854	96.118	NaN
96.103	4	rest.jpg	NaN	NaN	96.103	99.832	100.103	NaN	96.103	99.832	100.103	NaN
100.091	4	rest.jpg	NaN	NaN	100.091	103.82	104.091	NaN	100.091	103.82	104.091	NaN
104.093	4	Aircraft2_70%_33.jpg	1	0.75	104.093	107.823	104.831	1	104.093	107.823	104.831	1
108.112	4	Aircraft2_70%_38.jpg	1	0.75	108.112	111.841	109.632	1	108.112	111.841	109.632	1
112.132	4	Aircraft1_70%_30.jpg	0	0.75	112.132	115.862	113.281	0	112.132	115.862	113.281	0
116.156	4	Aircraft1_70%_41.jpg	0	0.75	116.156	119.885	117.006	0	116.156	119.885	117.006	0
120.159	4	Aircraft1_70%_18.jpg	0	0.75	120.159	123.888	121.148	0	120.159	123.888	121.148	0
124.177	4	rest.jpg	NaN	NaN	124.177	127.914	128.177	NaN	124.177	127.914	128.177	NaN
128.153	4	rest.jpg	NaN	NaN	128.153	131.887	132.153	NaN	128.153	131.887	132.153	NaN
132.123	4	rest.jpg	NaN	NaN	132.123	135.853	136.123	NaN	132.123	135.853	136.123	NaN
136.128	4	Aircraft2_10%_24.jpg	1	0.1	136.128	139.857	137.016	1	136.128	139.857	137.016	1
140.155	4	Aircraft2_10%_2.jpg	1	0.1	140.155	143.885	140.727	1	140.155	143.885	140.727	1
144.174	4	Aircraft2_10%_43.jpg	1	0.1	144.174	147.903	144.788	1	144.174	147.903	144.788	1
148.197	4	Aircraft2_10%_46.jpg	1	0.1	148.197	151.931	148.907	1	148.197	151.931	148.907	1
152.217	4	Aircraft1_10%_42.jpg	0	0.1	152.217	155.948	153.146	0	152.217	155.948	153.146	0
156.232	4	rest.jpg	NaN	NaN	156.232	159.968	160.232	NaN	156.232	159.968	160.232	NaN
160.207	4	rest.jpg	NaN	NaN	160.207	163.936	164.207	NaN	160.207	163.936	164.207	NaN
164.187	4	rest.jpg	NaN	NaN	164.187	167.916	168.187	NaN	164.187	167.916	168.187	NaN
168.184	4	Aircraft2_90%_9.jpg	1	0.9	168.184	171.916	170.712	1	168.184	171.916	170.712	1
172.185	4	Aircraft2_90%_6.jpg	1	0.9	172.185	175.916	174.751	1	172.185	175.916	174.751	1
176.184	4	Aircraft1_90%_23.jpg	0	0.9	176.184	179.918	178.22	0	176.184	179.918	178.22	0
180.2	4	Aircraft1_90%_21.jpg	0	0.9	180.2	183.932	181.352	0	180.2	183.932	181.352	0
184.216	4	Aircraft2_90%_36.jpg	1	0.9	184.216	187.944	185.864	1	184.216	187.944	185.864	1
188.234	4	rest.jpg	NaN	NaN	188.234	191.963	192.234	NaN	188.234	191.963	192.234	NaN
192.196	4	rest.jpg	NaN	NaN	192.196	195.932	196.196	NaN	192.196	195.932	196.196	NaN
196.176	4	rest.jpg	NaN	NaN	196.176	199.905	200.176	NaN	196.176	199.905	200.176	NaN
200.179	4	Aircraft2_70%_31.jpg	1	0.75	200.179	203.911	201.36	1	200.179	203.911	201.36	1
204.19	4	Aircraft1_70%_4.jpg	0	0.75	204.19	207.919	205.589	0	204.19	207.919	205.589	0
208.213	4	Aircraft2_70%_20.jpg	1	0.75	208.213	211.942	210.069	1	208.213	211.942	210.069	1
212.234	4	Aircraft1_70%_7.jpg	0	0.75	212.234	215.963	213.043	0	212.234	215.963	213.043	0
216.238	4	Aircraft1_70%_8.jpg	0	0.75	216.238	219.967	218.55	0	216.238	219.967	218.55	0
220.256	4	rest.jpg	NaN	NaN	220.256	223.984	224.256	NaN	220.256	223.984	224.256	NaN
224.23	4	rest.jpg	NaN	NaN	224.23	227.959	228.23	NaN	224.23	227.959	228.23	NaN
228.208	4	rest.jpg	NaN	NaN	228.208	231.944	232.208	NaN	228.208	231.944	232.208	NaN
232.219	4	Aircraft2_10%_31.jpg	1	0.1	232.219	235.954	233.376	1	232.219	235.954	233.376	1
236.244	4	Aircraft1_10%_4.jpg	0	0.1	236.244	239.979	237.235	0	236.244	239.979	237.235	0
240.25	4	Aircraft2_10%_20.jpg	1	0.1	240.25	243.981	241.206	1	240.25	243.981	241.206	1
244.257	4	Aircraft1_10%_7.jpg	0	0.1	244.257	247.991	245.371	0	244.257	247.991	245.371	0
248.271	4	Aircraft1_10%_8.jpg	0	0.1	248.271	252.001	248.958	0	248.271	252.001	248.958	0
252.287	4	rest.jpg	NaN	NaN	252.287	256.018	256.287	NaN	252.287	256.018	256.287	NaN
256.266	4	rest.jpg	NaN	NaN	256.266	260	260.266	NaN	256.266	260	260.266	NaN
260.249	4	rest.jpg	NaN	NaN	260.249	263.983	264.249	NaN	260.249	263.983	264.249	NaN
264.269	4	Aircraft2_90%_41.jpg	1	0.9	264.269	267.998	265.911	1	264.269	267.998	265.911	1
268.266	4	Aircraft1_90%_22.jpg	0	0.9	268.266	271.995	270.813	0	268.266	271.995	270.813	0
272.28	4	Aircraft1_90%_44.jpg	0	0.9	272.28	276.016	275.187	0	272.28	276.016	275.187	0
276.304	4	Aircraft1_90%_1.jpg	0	0.9	276.304	280.033	277.191	0	276.304	280.033	277.191	0
280.319	4	Aircraft2_90%_37.jpg	1	0.9	280.319	284.05	282.864	1	280.319	284.05	282.864	1
284.34	4	rest.jpg	NaN	NaN	284.34	288.069	288.34	NaN	284.34	288.069	288.34	NaN
288.317	4	rest.jpg	NaN	NaN	288.317	292.046	292.317	NaN	288.317	292.046	292.317	NaN
292.295	4	rest.jpg	NaN	NaN	292.295	296.024	296.295	NaN	292.295	296.024	296.295	NaN
296.294	4	Aircraft2_70%_41.jpg	1	0.75	296.294	300.03	298.457	1	296.294	300.03	298.457	1
300.302	4	Aircraft1_70%_22.jpg	0	0.75	300.302	304.037	302.067	0	300.302	304.037	302.067	0
304.326	4	Aircraft1_70%_44.jpg	0	0.75	304.326	308.055	305.766	0	304.326	308.055	305.766	0
308.329	4	Aircraft1_70%_1.jpg	0	0.75	308.329	312.067	309.37	0	308.329	312.067	309.37	0
312.355	4	Aircraft2_70%_37.jpg	1	0.75	312.355	316.087	313.566	1	312.355	316.087	313.566	1
316.376	4	rest.jpg	NaN	NaN	316.376	320.107	320.376	NaN	316.376	320.107	320.376	NaN
320.341	4	rest.jpg	NaN	NaN	320.341	324.07	324.341	NaN	320.341	324.07	324.341	NaN
324.32	4	rest.jpg	NaN	NaN	324.32	328.056	328.32	NaN	324.32	328.056	328.32	NaN
328.344	4	Aircraft2_10%_33.jpg	1	0.1	328.344	332.072	329.281	1	328.344	332.072	329.281	1
332.345	4	Aircraft2_10%_38.jpg	1	0.1	332.345	336.08	333.329	1	332.345	336.08	333.329	1
336.355	4	Aircraft1_10%_30.jpg	0	0.1	336.355	340.089	337.15	0	336.355	340.089	337.15	0
340.387	4	Aircraft1_10%_41.jpg	0	0.1	340.387	344.116	341.42	0	340.387	344.116	341.42	0
344.402	4	Aircraft1_10%_18.jpg	0	0.1	344.402	348.131	345.44	0	344.402	348.131	345.44	0
348.4	4	rest.jpg	NaN	NaN	348.4	352.129	352.4	NaN	348.4	352.129	352.4	NaN
352.362	4	rest.jpg	NaN	NaN	352.362	356.091	356.362	NaN	352.362	356.091	356.362	NaN
356.325	4	rest.jpg	NaN	NaN	356.325	360.059	360.325	NaN	356.325	360.059	360.325	NaN
360.326	4	Aircraft2_90%_23.jpg	1	0.9	360.326	364.059	362.457	1	360.326	364.059	362.457	1
364.345	4	Aircraft1_90%_28.jpg	0	0.9	364.345	368.074	365.466	0	364.345	368.074	365.466	0
368.348	4	Aircraft2_90%_13.jpg	1	0.9	368.348	372.082	370.589	1	368.348	372.082	370.589	1
372.347	4	Aircraft1_90%_45.jpg	0	0.9	372.347	376.078	373.537	0	372.347	376.078	373.537	0
376.345	4	Aircraft1_90%_37.jpg	0	0.9	376.345	380.079	377.496	0	376.345	380.079	377.496	0
380.348	4	rest.jpg	NaN	NaN	380.348	384.082	384.348	NaN	380.348	384.082	384.348	NaN
384.33	4	rest.jpg	NaN	NaN	384.33	388.059	388.33	NaN	384.33	388.059	388.33	NaN
388.308	4	rest.jpg	NaN	NaN	388.308	392.037	392.308	NaN	388.308	392.037	392.308	NaN
392.324	4	Aircraft1_70%_2.jpg	0	0.75	392.324	396.055	393.38	0	392.324	396.055	393.38	0
396.344	4	Aircraft1_70%_39.jpg	0	0.75	396.344	400.073	397.405	0	396.344	400.073	397.405	0
400.347	4	Aircraft2_70%_26.jpg	1	0.75	400.347	404.083	401.617	1	400.347	404.083	401.617	1
404.356	4	Aircraft1_70%_15.jpg	0	0.75	404.356	408.087	405.591	0	404.356	408.087	405.591	0
408.36	4	Aircraft2_70%_16.jpg	1	0.75	408.36	412.092	410.123	1	408.36	412.092	410.123	1
412.367	4	rest.jpg	NaN	NaN	412.367	416.098	416.367	NaN	412.367	416.098	416.367	NaN
416.343	4	rest.jpg	NaN	NaN	416.343	420.074	420.343	NaN	416.343	420.074	420.343	NaN
420.324	4	rest.jpg	NaN	NaN	420.324	424.056	424.324	NaN	420.324	424.056	424.324	NaN
424.333	4	Aircraft2_10%_4.jpg	1	0.1	424.333	428.062	425.116	1	424.333	428.062	425.116	1
428.355	4	Aircraft1_10%_43.jpg	0	0.1	428.355	432.09	429.725	0	428.355	432.09	429.725	0
432.377	4	Aircraft1_10%_9.jpg	0	0.1	432.377	436.106	433.44	0	432.377	436.106	433.44	0
436.381	4	Aircraft1_10%_11.jpg	0	0.1	436.381	440.11	437.616	0	436.381	440.11	437.616	0
440.395	4	Aircraft1_10%_50.jpg	0	0.1	440.395	444.13	441.86	0	440.395	444.13	441.86	0
444.416	4	rest.jpg	NaN	NaN	444.416	448.145	448.416	NaN	444.416	448.145	448.416	NaN
448.395	4	rest.jpg	NaN	NaN	448.395	452.131	452.395	NaN	448.395	452.131	452.395	NaN
452.374	4	rest.jpg	NaN	NaN	452.374	456.106	456.374	NaN	452.374	456.106	456.374	NaN
456.376	4	Aircraft1_90%_38.jpg	0	0.9	456.376	460.107	458.072	0	456.376	460.107	458.072	0
460.374	4	Aircraft2_90%_21.jpg	1	0.9	460.374	464.105	462.52	1	460.374	464.105	462.52	1
464.392	4	Aircraft1_90%_16.jpg	0	0.9	464.392	468.123	466.214	0	464.392	468.123	466.214	0
468.411	4	Aircraft1_90%_46.jpg	0	0.9	468.411	472.139	469.818	0	468.411	472.139	469.818	0
472.406	4	Aircraft2_90%_40.jpg	1	0.9	472.406	476.135	474.353	1	472.406	476.135	474.353	1
476.405	4	rest.jpg	NaN	NaN	476.405	480.134	480.405	NaN	476.405	480.134	480.405	NaN
480.381	4	rest.jpg	NaN	NaN	480.381	484.11	484.381	NaN	480.381	484.11	484.381	NaN
484.354	4	rest.jpg	NaN	NaN	484.354	488.085	488.354	NaN	484.354	488.085	488.354	NaN
488.355	4	Aircraft1_70%_36.jpg	0	0.75	488.355	492.087	489.774	0	488.355	492.087	489.774	0
492.364	4	Aircraft1_70%_35.jpg	0	0.75	492.364	496.095	493.492	0	492.364	496.095	493.492	0
496.385	4	Aircraft2_70%_3.jpg	1	0.75	496.385	500.12	498.402	1	496.385	500.12	498.402	1
500.405	4	Aircraft1_70%_5.jpg	0	0.75	500.405	504.135	501.194	0	500.405	504.135	501.194	0
504.425	4	Aircraft1_70%_48.jpg	0	0.75	504.425	508.157	505.393	0	504.425	508.157	505.393	0
508.444	4	rest.jpg	NaN	NaN	508.444	512.176	512.444	NaN	508.444	512.176	512.444	NaN
512.408	4	rest.jpg	NaN	NaN	512.408	516.143	516.408	NaN	512.408	516.143	516.408	NaN
516.375	4	rest.jpg	NaN	NaN	516.375	520.104	520.375	NaN	516.375	520.104	520.375	NaN
520.386	4	Aircraft2_10%_18.jpg	1	0.1	520.386	524.117	521.505	1	520.386	524.117	521.505	1
524.407	4	Aircraft1_10%_29.jpg	0	0.1	524.407	528.138	525.699	0	524.407	528.138	525.699	0
528.408	4	Aircraft2_10%_1.jpg	1	0.1	528.408	532.142	530.522	1	528.408	532.142	530.522	1
532.421	4	Aircraft1_10%_26.jpg	0	0.1	532.421	536.156	533.587	0	532.421	536.156	533.587	0
536.437	4	Aircraft2_10%_34.jpg	1	0.1	536.437	540.166	537.109	1	536.437	540.166	537.109	1
540.455	4	rest.jpg	NaN	NaN	540.455	544.186	544.455	NaN	540.455	544.186	544.455	NaN
544.433	4	rest.jpg	NaN	NaN	544.433	548.165	548.433	NaN	544.433	548.165	548.433	NaN
548.416	4	rest.jpg	NaN	NaN	548.416	552.148	552.416	NaN	548.416	552.148	552.416	NaN
552.427	4	Aircraft2_90%_30.jpg	1	0.9	552.427	556.159	554.77	1	552.427	556.159	554.77	1
556.442	4	Aircraft2_90%_27.jpg	1	0.9	556.442	560.171	558.633	1	556.442	560.171	558.633	1
560.453	4	Aircraft2_90%_50.jpg	1	0.9	560.453	564.188	562.033	1	560.453	564.188	562.033	1
564.474	4	Aircraft2_90%_29.jpg	1	0.9	564.474	568.205	565.719	1	564.474	568.205	565.719	1
568.472	4	Aircraft1_90%_6.jpg	0	0.9	568.472	572.203	570.018	0	568.472	572.203	570.018	0
572.492	4	rest.jpg	NaN	NaN	572.492	576.221	576.492	NaN	572.492	576.221	576.492	NaN
576.456	4	rest.jpg	NaN	NaN	576.456	580.184	580.456	NaN	576.456	580.184	580.456	NaN
580.432	4	rest.jpg	NaN	NaN	580.432	584.161	584.432	NaN	580.432	584.161	584.432	NaN
584.447	4	Aircraft2_70%_17.jpg	1	0.75	584.447	588.178	586.049	1	584.447	588.178	586.049	1
588.446	4	Aircraft2_70%_11.jpg	1	0.75	588.446	592.175	589.53	1	588.446	592.175	589.53	1
592.46	4	Aircraft1_70%_20.jpg	0	0.75	592.46	596.189	593.171	0	592.46	596.189	593.171	0
596.481	4	Aircraft2_70%_47.jpg	1	0.75	596.481	600.213	598.555	1	596.481	600.213	598.555	1
600.507	4	Aircraft2_70%_45.jpg	1	0.75	600.507	604.236	602.242	1	600.507	604.236	602.242	1
604.508	4	rest.jpg	NaN	NaN	604.508	608.237	608.508	NaN	604.508	608.237	608.508	NaN
608.485	4	rest.jpg	NaN	NaN	608.485	612.219	612.485	NaN	608.485	612.219	612.485	NaN
612.47	4	rest.jpg	NaN	NaN	612.47	616.204	616.47	NaN	612.47	616.204	616.47	NaN
616.477	4	Aircraft1_10%_32.jpg	0	0.1	616.477	620.206	618.159	0	616.477	620.206	618.159	0
620.498	4	Aircraft1_10%_49.jpg	0	0.1	620.498	624.233	621.068	0	620.498	624.233	621.068	0
624.507	4	Aircraft2_10%_22.jpg	1	0.1	624.507	628.241	625.379	1	624.507	628.241	625.379	1
628.511	4	Aircraft1_10%_34.jpg	0	0.1	628.511	632.24	629.771	0	628.511	632.24	629.771	0
632.517	4	Aircraft1_10%_14.jpg	0	0.1	632.517	636.246	633.863	0	632.517	636.246	633.863	0
636.535	4	rest.jpg	NaN	NaN	636.535	640.269	640.535	NaN	636.535	640.269	640.535	NaN
640.518	4	rest.jpg	NaN	NaN	640.518	644.247	644.518	NaN	640.518	644.247	644.518	NaN
644.484	4	rest.jpg	NaN	NaN	644.484	648.215	648.484	NaN	644.484	648.215	648.484	NaN
648.49	4	Aircraft1_90%_1.jpg	0	0.9	648.49	652.22	650.199	0	648.49	652.22	650.199	0
652.5	4	Aircraft1_90%_47.jpg	0	0.9	652.5	656.231	654.249	0	652.5	656.231	654.249	0
656.5	4	Aircraft1_90%_40.jpg	0	0.9	656.5	660.229	658.589	0	656.5	660.229	658.589	0
660.51	4	Aircraft1_90%_27.jpg	0	0.9	660.51	664.246	661.775	0	660.51	664.246	661.775	0
664.53	4	Aircraft2_90%_35.jpg	1	0.9	664.53	668.264	665.6	1	664.53	668.264	665.6	1
668.551	4	rest.jpg	NaN	NaN	668.551	672.28	672.551	NaN	668.551	672.28	672.551	NaN
672.529	4	rest.jpg	NaN	NaN	672.529	676.264	676.529	NaN	672.529	676.264	676.529	NaN
676.515	4	rest.jpg	NaN	NaN	676.515	680.244	680.515	NaN	676.515	680.244	680.515	NaN
680.527	4	Aircraft2_70%_23.jpg	1	0.75	680.527	684.256	682.476	1	680.527	684.256	682.476	1
684.546	4	Aircraft1_70%_28.jpg	0	0.75	684.546	688.277	685.319	0	684.546	688.277	685.319	0
688.562	4	Aircraft2_70%_13.jpg	1	0.75	688.562	692.293	689.399	1	688.562	692.293	689.399	1
692.583	4	Aircraft1_70%_45.jpg	0	0.75	692.583	696.319	693.827	0	692.583	696.319	693.827	0
696.604	4	Aircraft1_70%_37.jpg	0	0.75	696.604	700.333	697.751	0	696.604	700.333	697.751	0
700.62	4	rest.jpg	NaN	NaN	700.62	704.351	704.62	NaN	700.62	704.351	704.62	NaN
704.589	4	rest.jpg	NaN	NaN	704.589	708.318	708.589	NaN	704.589	708.318	708.589	NaN
708.564	4	rest.jpg	NaN	NaN	708.564	712.295	712.564	NaN	708.564	712.295	712.564	NaN
712.59	4	Aircraft1_10%_25.jpg	0	0.1	712.59	716.319	714.165	0	712.59	716.319	714.165	0
716.611	4	Aircraft2_10%_49.jpg	1	0.1	716.611	720.34	717.289	1	716.611	720.34	717.289	1
720.616	4	Aircraft2_10%_10.jpg	1	0.1	720.616	724.351	721.303	1	720.616	724.351	721.303	1
724.646	4	Aircraft2_10%_12.jpg	1	0.1	724.646	728.38	725.568	1	724.646	728.38	725.568	1
728.648	4	Aircraft2_10%_7.jpg	1	0.1	728.648	732.378	729.217	1	728.648	732.378	729.217	1
732.663	4	rest.jpg	NaN	NaN	732.663	736.394	736.663	NaN	732.663	736.394	736.663	NaN
736.641	4	rest.jpg	NaN	NaN	736.641	740.371	740.641	NaN	736.641	740.371	740.641	NaN
740.621	4	rest.jpg	NaN	NaN	740.621	744.35	744.621	NaN	740.621	744.35	744.621	NaN
744.629	4	Aircraft2_90%_17.jpg	1	0.9	744.629	748.361	746.3	1	744.629	748.361	746.3	1
748.628	4	Aircraft2_90%_11.jpg	1	0.9	748.628	752.36	750.009	1	748.628	752.36	750.009	1
752.627	4	Aircraft1_90%_20.jpg	0	0.9	752.627	756.361	754.735	0	752.627	756.361	754.735	0
756.628	4	Aircraft2_90%_47.jpg	1	0.9	756.628	760.364	757.753	1	756.628	760.364	757.753	1
760.644	4	Aircraft2_90%_45.jpg	1	0.9	760.644	764.378	762.514	1	760.644	764.378	762.514	1
764.669	4	rest.jpg	NaN	NaN	764.669	768.398	768.669	NaN	764.669	768.398	768.669	NaN
768.632	4	rest.jpg	NaN	NaN	768.632	772.363	772.632	NaN	768.632	772.363	772.632	NaN
772.61	4	rest.jpg	NaN	NaN	772.61	776.341	776.61	NaN	772.61	776.341	776.61	NaN
776.609	4	Aircraft1_70%_38.jpg	0	0.75	776.609	780.345	778.051	0	776.609	780.345	778.051	0
780.614	4	Aircraft2_70%_21.jpg	1	0.75	780.614	784.346	781.408	1	780.614	784.346	781.408	1
784.636	4	Aircraft1_70%_16.jpg	0	0.75	784.636	788.365	785.909	0	784.636	788.365	785.909	0
788.658	4	Aircraft1_70%_46.jpg	0	0.75	788.658	792.393	789.742	0	788.658	792.393	789.742	0
792.665	4	Aircraft2_70%_40.jpg	1	0.75	792.665	796.396	794.174	1	792.665	796.396	794.174	1
796.665	4	rest.jpg	NaN	NaN	796.665	800.401	800.665	NaN	796.665	800.401	800.665	NaN
800.633	4	rest.jpg	NaN	NaN	800.633	804.369	804.633	NaN	800.633	804.369	804.633	NaN
804.619	4	rest.jpg	NaN	NaN	804.619	808.348	808.619	NaN	804.619	808.348	808.619	NaN
808.625	4	Aircraft1_10%_3.jpg	0	0.1	808.625	812.361	809.751	0	808.625	812.361	809.751	0
812.631	4	Aircraft2_10%_28.jpg	1	0.1	812.631	816.363	813.341	1	812.631	816.363	813.341	1
816.654	4	Aircraft1_10%_24.jpg	0	0.1	816.654	820.383	817.612	0	816.654	820.383	817.612	0
820.658	4	Aircraft2_10%_39.jpg	1	0.1	820.658	824.389	821.449	1	820.658	824.389	821.449	1
824.685	4	Aircraft2_10%_8.jpg	1	0.1	824.685	828.414	825.393	1	824.685	828.414	825.393	1
828.704	4	rest.jpg	NaN	NaN	828.704	832.433	832.704	NaN	828.704	832.433	832.704	NaN
832.681	4	rest.jpg	NaN	NaN	832.681	836.41	836.681	NaN	832.681	836.41	836.681	NaN
836.644	4	rest.jpg	NaN	NaN	836.644	840.373	840.644	NaN	836.644	840.373	840.644	NaN
840.653	4	Aircraft1_90%_36.jpg	0	0.9	840.653	844.383	842.941	0	840.653	844.383	842.941	0
844.672	4	Aircraft1_90%_35.jpg	0	0.9	844.672	848.406	845.937	0	844.672	848.406	845.937	0
848.688	4	Aircraft2_90%_3.jpg	1	0.9	848.688	852.417	850.254	1	848.688	852.417	850.254	1
852.685	4	Aircraft1_90%_5.jpg	0	0.9	852.685	856.421	854.967	0	852.685	856.421	854.967	0
856.687	4	Aircraft1_90%_48.jpg	0	0.9	856.687	860.421	859.131	0	856.687	860.421	859.131	0
860.71	4	rest.jpg	NaN	NaN	860.71	864.445	864.71	NaN	860.71	864.445	864.71	NaN
864.694	4	rest.jpg	NaN	NaN	864.694	868.423	868.694	NaN	864.694	868.423	868.694	NaN
868.668	4	rest.jpg	NaN	NaN	868.668	872.404	872.668	NaN	868.668	872.404	872.668	NaN
872.692	4	Aircraft2_70%_30.jpg	1	0.75	872.692	876.427	874.25	1	872.692	876.427	874.25	1
876.718	4	Aircraft2_70%_27.jpg	1	0.75	876.718	880.454	878.685	1	876.718	880.454	878.685	1
880.722	4	Aircraft2_70%_50.jpg	1	0.75	880.722	884.453	881.8	1	880.722	884.453	881.8	1
884.743	4	Aircraft2_70%_29.jpg	1	0.75	884.743	888.477	886.137	1	884.743	888.477	886.137	1
888.75	4	Aircraft1_70%_6.jpg	0	0.75	888.75	892.484	889.866	0	888.75	892.484	889.866	0
892.768	4	rest.jpg	NaN	NaN	892.768	896.497	896.768	NaN	892.768	896.497	896.768	NaN
896.731	4	rest.jpg	NaN	NaN	896.731	900.465	900.731	NaN	896.731	900.465	900.731	NaN
900.708	4	rest.jpg	NaN	NaN	900.708	904.439	904.708	NaN	900.708	904.439	904.708	NaN
904.712	4	Aircraft2_10%_14.jpg	1	0.1	904.712	908.447	905.643	1	904.712	908.447	905.643	1
908.73	4	Aircraft2_10%_5.jpg	1	0.1	908.73	912.465	909.503	1	908.73	912.465	909.503	1
912.739	4	Aircraft2_10%_15.jpg	1	0.1	912.739	916.469	913.254	1	912.739	916.469	913.254	1
916.758	4	Aircraft2_10%_19.jpg	1	0.1	916.758	920.493	917.082	1	916.758	920.493	917.082	1
920.77	4	Aircraft1_10%_31.jpg	0	0.1	920.77	924.507	921.75	0	920.77	924.507	921.75	0
924.797	4	rest.jpg	NaN	NaN	924.797	928.532	928.797	NaN	924.797	928.532	928.797	NaN
928.781	4	rest.jpg	NaN	NaN	928.781	932.51	932.781	NaN	928.781	932.51	932.781	NaN
932.761	4	rest.jpg	NaN	NaN	932.761	936.494	936.761	NaN	932.761	936.494	936.761	NaN
936.76	4	Aircraft1_90%_2.jpg	0	0.9	936.76	940.489	938.244	0	936.76	940.489	938.244	0
940.754	4	Aircraft1_90%_39.jpg	0	0.9	940.754	944.483	942.13	0	940.754	944.483	942.13	0
944.75	4	Aircraft2_90%_26.jpg	1	0.9	944.75	948.479	947.117	1	944.75	948.479	947.117	1
948.746	4	Aircraft1_90%_15.jpg	0	0.9	948.746	952.48	950.142	0	948.746	952.48	950.142	0
952.759	4	Aircraft2_90%_16.jpg	1	0.9	952.759	956.495	955.809	1	952.759	956.495	955.809	1
956.765	4	rest.jpg	NaN	NaN	956.765	960.496	960.765	NaN	956.765	960.496	960.765	NaN
960.741	4	rest.jpg	NaN	NaN	960.741	964.47	964.741	NaN	960.741	964.47	964.741	NaN
964.72	4	rest.jpg	NaN	NaN	964.72	968.449	968.72	NaN	964.72	968.449	968.72	NaN
968.722	4	Aircraft1_70%_1.jpg	0	0.75	968.722	972.457	969.724	0	968.722	972.457	969.724	0
972.728	4	Aircraft1_70%_47.jpg	0	0.75	972.728	976.458	973.77	0	972.728	976.458	973.77	0
976.73	4	Aircraft1_70%_40.jpg	0	0.75	976.73	980.466	977.473	0	976.73	980.466	977.473	0
980.75	4	Aircraft1_70%_27.jpg	0	0.75	980.75	984.482	981.86	0	980.75	984.482	981.86	0
984.77	4	Aircraft2_70%_35.jpg	1	0.75	984.77	988.506	986.127	1	984.77	988.506	986.127	1
988.776	4	rest.jpg	NaN	NaN	988.776	992.507	992.776	NaN	988.776	992.507	992.776	NaN
992.757	4	rest.jpg	NaN	NaN	992.757	996.492	996.757	NaN	992.757	996.492	996.757	NaN
996.736	4	rest.jpg	NaN	NaN	996.736	1000.471	1000.736	NaN	996.736	1000.471	1000.736	NaN
