onset	duration	stim_file	stim_lable	levelOfOcclusion	stim_started	stim_stopped	key_time	key_fix
39.984	4	Aircraft1_10%_17.jpg	0	0.1	39.984	43.715	41.055	0
44.008	4	Aircraft2_10%_42.jpg	1	0.1	44.008	47.739	45.254	1
48.011	4	Aircraft2_10%_44.jpg	1	0.1	48.011	51.743	48.637	1
52.029	4	Aircraft1_10%_10.jpg	0	0.1	52.029	55.762	52.691	0
56.041	4	Aircraft2_10%_25.jpg	1	0.1	56.041	59.776	57.481	1
60.061	4	rest.jpg	NaN	NaN	60.061	63.794	64.061	NaN
64.041	4	rest.jpg	NaN	NaN	64.041	67.772	68.041	NaN
68.006	4	rest.jpg	NaN	NaN	68.006	71.739	72.006	NaN
72.022	4	Aircraft1_90%_12.jpg	0	0.9	72.022	75.754	74.444	0
76.039	4	Aircraft2_90%_32.jpg	1	0.9	76.039	79.772	78.434	1
80.04	4	Aircraft2_90%_48.jpg	1	0.9	80.04	83.772	80.846	1
84.056	4	Aircraft1_90%_19.jpg	0	0.9	84.056	87.786	84.938	0
88.06	4	Aircraft1_90%_33.jpg	0	0.9	88.06	91.795	90.603	0
92.081	4	rest.jpg	NaN	NaN	92.081	95.812	96.081	NaN
96.046	4	rest.jpg	NaN	NaN	96.046	99.787	100.046	NaN
100.021	4	rest.jpg	NaN	NaN	100.021	103.755	104.021	NaN
104.025	4	Aircraft2_70%_33.jpg	1	0.75	104.025	107.758	106.295	1
108.034	4	Aircraft2_70%_38.jpg	1	0.75	108.034	111.767	108.914	1
112.051	4	Aircraft1_70%_30.jpg	0	0.75	112.051	115.784	114.228	0
116.072	4	Aircraft1_70%_41.jpg	0	0.75	116.072	119.801	116.835	0
120.092	4	Aircraft1_70%_18.jpg	0	0.75	120.092	123.83	122.204	0
124.103	4	rest.jpg	NaN	NaN	124.103	127.839	128.103	NaN
128.077	4	rest.jpg	NaN	NaN	128.077	131.808	132.077	NaN
132.055	4	rest.jpg	NaN	NaN	132.055	135.785	136.055	NaN
136.055	4	Aircraft2_10%_24.jpg	1	0.1	136.055	139.791	136.919	1
140.063	4	Aircraft2_10%_2.jpg	1	0.1	140.063	143.797	140.921	1
144.066	4	Aircraft2_10%_43.jpg	1	0.1	144.066	147.8	144.795	1
148.091	4	Aircraft2_10%_46.jpg	1	0.1	148.091	151.826	148.78	1
152.093	4	Aircraft1_10%_42.jpg	0	0.1	152.093	155.822	153.689	0
156.089	4	rest.jpg	NaN	NaN	156.089	159.825	160.089	NaN
160.058	4	rest.jpg	NaN	NaN	160.058	163.793	164.058	NaN
164.025	4	rest.jpg	NaN	NaN	164.025	167.761	168.025	NaN
168.023	4	Aircraft2_90%_9.jpg	1	0.9	168.023	171.753	169.938	1
172.017	4	Aircraft2_90%_6.jpg	1	0.9	172.017	175.749	173.144	1
176.011	4	Aircraft1_90%_23.jpg	0	0.9	176.011	179.75	177.81	0
180.022	4	Aircraft1_90%_21.jpg	0	0.9	180.022	183.759	181.36	0
184.035	4	Aircraft2_90%_36.jpg	1	0.9	184.035	187.767	185.749	1
188.045	4	rest.jpg	NaN	NaN	188.045	191.781	192.045	NaN
192.029	4	rest.jpg	NaN	NaN	192.029	195.767	196.029	NaN
196.012	4	rest.jpg	NaN	NaN	196.012	199.748	200.012	NaN
200.016	4	Aircraft2_70%_31.jpg	1	0.75	200.016	203.747	202.029	1
204.018	4	Aircraft1_70%_4.jpg	0	0.75	204.018	207.751	206.252	0
208.034	4	Aircraft2_70%_20.jpg	1	0.75	208.034	211.772	210.017	1
212.045	4	Aircraft1_70%_7.jpg	0	0.75	212.045	215.777	213.923	0
216.056	4	Aircraft1_70%_8.jpg	0	0.75	216.056	219.785	216.765	0
220.069	4	rest.jpg	NaN	NaN	220.069	223.798	224.069	NaN
224.028	4	rest.jpg	NaN	NaN	224.028	227.764	228.028	NaN
228.014	4	rest.jpg	NaN	NaN	228.014	231.746	232.014	NaN
232.015	4	Aircraft2_10%_31.jpg	1	0.1	232.015	235.745	233.813	1
236.017	4	Aircraft1_10%_4.jpg	0	0.1	236.017	239.755	236.643	0
240.02	4	Aircraft2_10%_20.jpg	1	0.1	240.02	243.752	241.123	1
244.042	4	Aircraft1_10%_7.jpg	0	0.1	244.042	247.776	244.859	0
248.062	4	Aircraft1_10%_8.jpg	0	0.1	248.062	251.792	248.915	0
252.074	4	rest.jpg	NaN	NaN	252.074	255.805	256.074	NaN
256.037	4	rest.jpg	NaN	NaN	256.037	259.773	260.037	NaN
260.02	4	rest.jpg	NaN	NaN	260.02	263.753	264.02	NaN
264.016	4	Aircraft2_90%_41.jpg	1	0.9	264.016	267.751	266.826	1
268.03	4	Aircraft1_90%_22.jpg	0	0.9	268.03	271.763	269.677	0
272.04	4	Aircraft1_90%_44.jpg	0	0.9	272.04	275.77	274.251	0
276.032	4	Aircraft1_90%_1.jpg	0	0.9	276.032	279.765	277.343	0
280.04	4	Aircraft2_90%_37.jpg	1	0.9	280.04	283.772	281.018	1
284.057	4	rest.jpg	NaN	NaN	284.057	287.792	288.057	NaN
288.039	4	rest.jpg	NaN	NaN	288.039	291.772	292.039	NaN
292.019	4	rest.jpg	NaN	NaN	292.019	295.754	296.019	NaN
296.02	4	Aircraft2_70%_41.jpg	1	0.75	296.02	299.756	297.874	1
300.026	4	Aircraft1_70%_22.jpg	0	0.75	300.026	303.76	304.026	0
304.04	4	Aircraft1_70%_44.jpg	0	0.75	304.04	307.772	304.433	0
308.059	4	Aircraft1_70%_1.jpg	0	0.75	308.059	311.79	309.136	0
312.076	4	Aircraft2_70%_37.jpg	1	0.75	312.076	315.805	314.356	1
316.074	4	rest.jpg	NaN	NaN	316.074	319.81	320.074	NaN
320.042	4	rest.jpg	NaN	NaN	320.042	323.77	324.042	NaN
324.013	4	rest.jpg	NaN	NaN	324.013	327.746	328.013	NaN
328.014	4	Aircraft2_10%_33.jpg	1	0.1	328.014	331.745	328.681	1
332.028	4	Aircraft2_10%_38.jpg	1	0.1	332.028	335.758	332.694	1
336.052	4	Aircraft1_10%_30.jpg	0	0.1	336.052	339.783	337.768	0
340.056	4	Aircraft1_10%_41.jpg	0	0.1	340.056	343.788	340.641	0
344.071	4	Aircraft1_10%_18.jpg	0	0.1	344.071	347.806	344.866	0
348.075	4	rest.jpg	NaN	NaN	348.075	351.811	352.075	NaN
352.043	4	rest.jpg	NaN	NaN	352.043	355.772	356.043	NaN
356.005	4	rest.jpg	NaN	NaN	356.005	359.741	360.005	NaN
360.001	4	Aircraft2_90%_23.jpg	1	0.9	360.001	363.733	361.446	1
363.997	4	Aircraft1_90%_28.jpg	0	0.9	363.997	367.727	364.821	0
367.989	4	Aircraft2_90%_13.jpg	1	0.9	367.989	371.724	368.785	1
371.984	4	Aircraft1_90%_45.jpg	0	0.9	371.984	375.715	372.692	0
375.977	4	Aircraft1_90%_37.jpg	0	0.9	375.977	379.708	376.898	0
379.983	4	rest.jpg	NaN	NaN	379.983	383.717	381.432	NaN
383.967	4	rest.jpg	NaN	NaN	383.967	387.705	387.967	NaN
387.954	4	rest.jpg	NaN	NaN	387.954	391.684	391.954	NaN
391.952	4	Aircraft1_70%_2.jpg	0	0.75	391.952	395.689	392.999	0
395.957	4	Aircraft1_70%_39.jpg	0	0.75	395.957	399.692	396.653	0
399.962	4	Aircraft2_70%_26.jpg	1	0.75	399.962	403.7	401.423	1
403.97	4	Aircraft1_70%_15.jpg	0	0.75	403.97	407.705	405.018	0
407.974	4	Aircraft2_70%_16.jpg	1	0.75	407.974	411.704	409.121	1
411.972	4	rest.jpg	NaN	NaN	411.972	415.705	415.972	NaN
415.954	4	rest.jpg	NaN	NaN	415.954	419.689	419.954	NaN
419.939	4	rest.jpg	NaN	NaN	419.939	423.669	423.939	NaN
423.938	4	Aircraft2_10%_4.jpg	1	0.1	423.938	427.676	424.74	1
427.948	4	Aircraft1_10%_43.jpg	0	0.1	427.948	431.679	428.615	0
431.946	4	Aircraft1_10%_9.jpg	0	0.1	431.946	435.682	432.683	0
435.952	4	Aircraft1_10%_11.jpg	0	0.1	435.952	439.69	436.815	0
439.955	4	Aircraft1_10%_50.jpg	0	0.1	439.955	443.692	440.679	0
443.975	4	rest.jpg	NaN	NaN	443.975	447.705	447.975	NaN
447.954	4	rest.jpg	NaN	NaN	447.954	451.687	451.954	NaN
451.931	4	rest.jpg	NaN	NaN	451.931	455.662	455.931	NaN
455.925	4	Aircraft1_90%_38.jpg	0	0.9	455.925	459.657	457.841	0
459.923	4	Aircraft2_90%_21.jpg	1	0.9	459.923	463.659	461.588	1
463.924	4	Aircraft1_90%_16.jpg	0	0.9	463.924	467.653	466.35	0
467.925	4	Aircraft1_90%_46.jpg	0	0.9	467.925	471.656	469.855	0
471.918	4	Aircraft2_90%_40.jpg	1	0.9	471.918	475.647	472.969	1
475.913	4	rest.jpg	NaN	NaN	475.913	479.642	479.913	NaN
479.888	4	rest.jpg	NaN	NaN	479.888	483.617	483.888	NaN
483.849	4	rest.jpg	NaN	NaN	483.849	487.58	487.849	NaN
487.845	4	Aircraft1_70%_36.jpg	0	0.75	487.845	491.579	490.209	0
491.846	4	Aircraft1_70%_35.jpg	0	0.75	491.846	495.582	493.499	0
495.858	4	Aircraft2_70%_3.jpg	1	0.75	495.858	499.594	499.858	1
499.875	4	Aircraft1_70%_5.jpg	0	0.75	499.875	503.61	500.111	0
503.884	4	Aircraft1_70%_48.jpg	0	0.75	503.884	507.618	505.067	0
507.892	4	rest.jpg	NaN	NaN	507.892	511.628	511.892	NaN
511.862	4	rest.jpg	NaN	NaN	511.862	515.597	515.862	NaN
515.849	4	rest.jpg	NaN	NaN	515.849	519.583	519.849	NaN
519.871	4	Aircraft2_10%_18.jpg	1	0.1	519.871	523.607	520.697	1
523.891	4	Aircraft1_10%_29.jpg	0	0.1	523.891	527.627	524.708	0
527.899	4	Aircraft2_10%_1.jpg	1	0.1	527.899	531.631	528.858	1
531.903	4	Aircraft1_10%_26.jpg	0	0.1	531.903	535.631	534.329	0
535.911	4	Aircraft2_10%_34.jpg	1	0.1	535.911	539.64	536.595	1
539.907	4	rest.jpg	NaN	NaN	539.907	543.638	543.907	NaN
543.868	4	rest.jpg	NaN	NaN	543.868	547.597	547.868	NaN
547.829	4	rest.jpg	NaN	NaN	547.829	551.558	551.829	NaN
551.832	4	Aircraft2_90%_30.jpg	1	0.9	551.832	555.561	552.685	1
555.84	4	Aircraft2_90%_27.jpg	1	0.9	555.84	559.574	556.878	1
559.836	4	Aircraft2_90%_50.jpg	1	0.9	559.836	563.572	560.761	1
563.852	4	Aircraft2_90%_29.jpg	1	0.9	563.852	567.581	565.045	1
567.843	4	Aircraft1_90%_6.jpg	0	0.9	567.843	571.577	569.121	0
571.84	4	rest.jpg	NaN	NaN	571.84	575.569	575.84	NaN
575.799	4	rest.jpg	NaN	NaN	575.799	579.532	579.799	NaN
579.762	4	rest.jpg	NaN	NaN	579.762	583.496	583.762	NaN
583.76	4	Aircraft2_70%_17.jpg	1	0.75	583.76	587.492	584.677	1
587.771	4	Aircraft2_70%_11.jpg	1	0.75	587.771	591.507	589.513	1
591.774	4	Aircraft1_70%_20.jpg	0	0.75	591.774	595.51	592.85	0
595.782	4	Aircraft2_70%_47.jpg	1	0.75	595.782	599.513	596.825	1
599.78	4	Aircraft2_70%_45.jpg	1	0.75	599.78	603.509	602.6	1
603.777	4	rest.jpg	NaN	NaN	603.777	607.505	607.777	NaN
607.749	4	rest.jpg	NaN	NaN	607.749	611.483	611.749	NaN
611.713	4	rest.jpg	NaN	NaN	611.713	615.442	615.713	NaN
615.726	4	Aircraft1_10%_32.jpg	0	0.1	615.726	619.461	616.596	0
619.75	4	Aircraft1_10%_49.jpg	0	0.1	619.75	623.481	620.48	0
623.767	4	Aircraft2_10%_22.jpg	1	0.1	623.767	627.496	624.425	1
627.765	4	Aircraft1_10%_34.jpg	0	0.1	627.765	631.494	628.729	0
631.762	4	Aircraft1_10%_14.jpg	0	0.1	631.762	635.499	633.137	0
635.766	4	rest.jpg	NaN	NaN	635.766	639.502	639.766	NaN
639.734	4	rest.jpg	NaN	NaN	639.734	643.464	643.734	NaN
643.711	4	rest.jpg	NaN	NaN	643.711	647.442	647.711	NaN
647.722	4	Aircraft1_90%_1.jpg	0	0.9	647.722	651.457	648.724	0
651.722	4	Aircraft1_90%_47.jpg	0	0.9	651.722	655.453	652.601	0
655.718	4	Aircraft1_90%_40.jpg	0	0.9	655.718	659.449	656.371	0
659.713	4	Aircraft1_90%_27.jpg	0	0.9	659.713	663.448	662.307	0
663.723	4	Aircraft2_90%_35.jpg	1	0.9	663.723	667.452	665.565	1
667.719	4	rest.jpg	NaN	NaN	667.719	671.45	671.719	NaN
671.682	4	rest.jpg	NaN	NaN	671.682	675.411	675.682	NaN
675.643	4	rest.jpg	NaN	NaN	675.643	679.377	679.643	NaN
679.657	4	Aircraft2_70%_23.jpg	1	0.75	679.657	683.394	681.241	1
683.677	4	Aircraft1_70%_28.jpg	0	0.75	683.677	687.407	684.53	0
687.69	4	Aircraft2_70%_13.jpg	1	0.75	687.69	691.419	689.051	1
691.689	4	Aircraft1_70%_45.jpg	0	0.75	691.689	695.421	692.531	0
695.689	4	Aircraft1_70%_37.jpg	0	0.75	695.689	699.419	699.252	0
699.697	4	rest.jpg	NaN	NaN	699.697	703.433	703.697	NaN
703.665	4	rest.jpg	NaN	NaN	703.665	707.399	707.665	NaN
707.644	4	rest.jpg	NaN	NaN	707.644	711.373	711.644	NaN
711.644	4	Aircraft1_10%_25.jpg	0	0.1	711.644	715.377	713.314	0
715.658	4	Aircraft2_10%_49.jpg	1	0.1	715.658	719.394	716.606	1
719.665	4	Aircraft2_10%_10.jpg	1	0.1	719.665	723.399	721.044	1
723.684	4	Aircraft2_10%_12.jpg	1	0.1	723.684	727.415	724.398	1
727.695	4	Aircraft2_10%_7.jpg	1	0.1	727.695	731.431	728.372	1
731.708	4	rest.jpg	NaN	NaN	731.708	735.442	735.708	NaN
735.674	4	rest.jpg	NaN	NaN	735.674	739.406	739.674	NaN
739.651	4	rest.jpg	NaN	NaN	739.651	743.386	743.651	NaN
743.664	4	Aircraft2_90%_17.jpg	1	0.9	743.664	747.398	745.138	1
747.661	4	Aircraft2_90%_11.jpg	1	0.9	747.661	751.391	750.057	1
751.651	4	Aircraft1_90%_20.jpg	0	0.9	751.651	755.38	752.325	0
755.646	4	Aircraft2_90%_47.jpg	1	0.9	755.646	759.375	756.701	1
759.65	4	Aircraft2_90%_45.jpg	1	0.9	759.65	763.381	760.471	1
763.648	4	rest.jpg	NaN	NaN	763.648	767.379	767.648	NaN
767.611	4	rest.jpg	NaN	NaN	767.611	771.34	771.611	NaN
771.589	4	rest.jpg	NaN	NaN	771.589	775.32	775.589	NaN
775.584	4	Aircraft1_70%_38.jpg	0	0.75	775.584	779.315	777.295	0
779.581	4	Aircraft2_70%_21.jpg	1	0.75	779.581	783.312	780.44	1
783.581	4	Aircraft1_70%_16.jpg	0	0.75	783.581	787.311	784.344	0
787.593	4	Aircraft1_70%_46.jpg	0	0.75	787.593	791.329	788.655	0
791.596	4	Aircraft2_70%_40.jpg	1	0.75	791.596	795.33	793.264	1
795.609	4	rest.jpg	NaN	NaN	795.609	799.345	799.609	NaN
799.577	4	rest.jpg	NaN	NaN	799.577	803.306	803.577	NaN
803.551	4	rest.jpg	NaN	NaN	803.551	807.286	807.551	NaN
807.562	4	Aircraft1_10%_3.jpg	0	0.1	807.562	811.291	808.314	0
811.572	4	Aircraft2_10%_28.jpg	1	0.1	811.572	815.303	812.458	1
815.579	4	Aircraft1_10%_24.jpg	0	0.1	815.579	819.309	818.62	0
819.603	4	Aircraft2_10%_39.jpg	1	0.1	819.603	823.337	820.28	1
823.622	4	Aircraft2_10%_8.jpg	1	0.1	823.622	827.352	824.418	1
827.636	4	rest.jpg	NaN	NaN	827.636	831.366	831.636	NaN
831.616	4	rest.jpg	NaN	NaN	831.616	835.348	835.616	NaN
835.593	4	rest.jpg	NaN	NaN	835.593	839.326	839.593	NaN
839.594	4	Aircraft1_90%_36.jpg	0	0.9	839.594	843.323	840.848	0
843.597	4	Aircraft1_90%_35.jpg	0	0.9	843.597	847.329	845.176	0
847.61	4	Aircraft2_90%_3.jpg	1	0.9	847.61	851.339	849.357	1
851.605	4	Aircraft1_90%_5.jpg	0	0.9	851.605	855.333	852.547	0
855.612	4	Aircraft1_90%_48.jpg	0	0.9	855.612	859.348	856.7	0
859.614	4	rest.jpg	NaN	NaN	859.614	863.35	863.614	NaN
863.582	4	rest.jpg	NaN	NaN	863.582	867.317	867.582	NaN
867.549	4	rest.jpg	NaN	NaN	867.549	871.286	871.549	NaN
871.553	4	Aircraft2_70%_30.jpg	1	0.75	871.553	875.287	872.812	1
875.557	4	Aircraft2_70%_27.jpg	1	0.75	875.557	879.292	876.452	1
879.556	4	Aircraft2_70%_50.jpg	1	0.75	879.556	883.288	880.608	1
883.554	4	Aircraft2_70%_29.jpg	1	0.75	883.554	887.283	885.726	1
887.55	4	Aircraft1_70%_6.jpg	0	0.75	887.55	891.284	888.366	0
891.563	4	rest.jpg	NaN	NaN	891.563	895.292	895.563	NaN
895.538	4	rest.jpg	NaN	NaN	895.538	899.267	899.538	NaN
899.498	4	rest.jpg	NaN	NaN	899.498	903.232	903.498	NaN
903.514	4	Aircraft2_10%_14.jpg	1	0.1	903.514	907.244	905.666	1
907.515	4	Aircraft2_10%_5.jpg	1	0.1	907.515	911.249	908.178	1
911.536	4	Aircraft2_10%_15.jpg	1	0.1	911.536	915.271	912.159	1
915.552	4	Aircraft2_10%_19.jpg	1	0.1	915.552	919.289	916.186	1
919.559	4	Aircraft1_10%_31.jpg	0	0.1	919.559	923.288	923.559	0
923.555	4	rest.jpg	NaN	NaN	923.555	927.283	927.555	NaN
927.513	4	rest.jpg	NaN	NaN	927.513	931.247	931.513	NaN
931.494	4	rest.jpg	NaN	NaN	931.494	935.223	935.494	NaN
935.487	4	Aircraft1_90%_2.jpg	0	0.9	935.487	939.216	939.052	0
939.479	4	Aircraft1_90%_39.jpg	0	0.9	939.479	943.21	940.604	0
943.492	4	Aircraft2_90%_26.jpg	1	0.9	943.492	947.221	944.326	1
947.504	4	Aircraft1_90%_15.jpg	0	0.9	947.504	951.233	948.263	0
951.501	4	Aircraft2_90%_16.jpg	1	0.9	951.501	955.232	953.227	1
955.518	4	rest.jpg	NaN	NaN	955.518	959.252	959.518	NaN
959.503	4	rest.jpg	NaN	NaN	959.503	963.231	963.503	NaN
963.463	4	rest.jpg	NaN	NaN	963.463	967.198	967.463	NaN
967.48	4	Aircraft1_70%_1.jpg	0	0.75	967.48	971.209	968.328	0
971.486	4	Aircraft1_70%_47.jpg	0	0.75	971.486	975.217	972.679	0
975.506	4	Aircraft1_70%_40.jpg	0	0.75	975.506	979.235	978.412	0
979.521	4	Aircraft1_70%_27.jpg	0	0.75	979.521	983.256	980.89	0
983.529	4	Aircraft2_70%_35.jpg	1	0.75	983.529	987.259	985.162	1
987.532	4	rest.jpg	NaN	NaN	987.532	991.261	991.532	NaN
991.495	4	rest.jpg	NaN	NaN	991.495	995.226	995.495	NaN
995.461	4	rest.jpg	NaN	NaN	995.461	999.194	999.461	NaN
