onset	duration	stim_file	stim_lable	levelOfOcclusion	stim_started	stim_stopped	key_time	key_fix
40.012	4	Aircraft1_10%_17.jpg	0	0.1	40.012	43.747	41.619	0
44.028	4	Aircraft2_10%_42.jpg	1	0.1	44.028	47.761	44.882	1
48.048	4	Aircraft2_10%_44.jpg	1	0.1	48.048	51.789	48.802	1
52.071	4	Aircraft1_10%_10.jpg	0	0.1	52.071	55.805	53.053	0
56.082	4	Aircraft2_10%_25.jpg	1	0.1	56.082	59.818	57.187	1
60.094	4	rest.jpg	NaN	NaN	60.094	63.825	64.094	NaN
64.082	4	rest.jpg	NaN	NaN	64.082	67.815	68.082	NaN
68.047	4	rest.jpg	NaN	NaN	68.047	71.78	72.047	NaN
72.061	4	Aircraft1_90%_12.jpg	0	0.9	72.061	75.792	73.494	0
76.094	4	Aircraft2_90%_32.jpg	1	0.9	76.094	79.825	77.602	1
80.095	4	Aircraft2_90%_48.jpg	1	0.9	80.095	83.83	81.074	1
84.12	4	Aircraft1_90%_19.jpg	0	0.9	84.12	87.849	85.014	0
88.128	4	Aircraft1_90%_33.jpg	0	0.9	88.128	91.863	89.463	0
92.152	4	rest.jpg	NaN	NaN	92.152	95.884	96.152	NaN
96.137	4	rest.jpg	NaN	NaN	96.137	99.871	100.137	NaN
100.125	4	rest.jpg	NaN	NaN	100.125	103.857	104.125	NaN
104.136	4	Aircraft2_70%_33.jpg	1	0.75	104.136	107.87	105.602	1
108.188	4	Aircraft2_70%_38.jpg	1	0.75	108.188	111.917	109.713	1
112.193	4	Aircraft1_70%_30.jpg	0	0.75	112.193	115.922	113.784	0
116.216	4	Aircraft1_70%_41.jpg	0	0.75	116.216	119.951	117.513	0
120.259	4	Aircraft1_70%_18.jpg	0	0.75	120.259	123.995	121.718	0
124.272	4	rest.jpg	NaN	NaN	124.272	128.007	128.272	NaN
128.242	4	rest.jpg	NaN	NaN	128.242	131.976	132.242	NaN
132.211	4	rest.jpg	NaN	NaN	132.211	135.94	136.211	NaN
136.249	4	Aircraft2_10%_24.jpg	1	0.1	136.249	139.98	137.125	1
140.271	4	Aircraft2_10%_2.jpg	1	0.1	140.271	144.005	141.101	1
144.292	4	Aircraft2_10%_43.jpg	1	0.1	144.292	148.027	145.141	1
148.336	4	Aircraft2_10%_46.jpg	1	0.1	148.336	152.066	149.077	1
152.352	4	Aircraft1_10%_42.jpg	0	0.1	152.352	156.082	153.35	0
156.363	4	rest.jpg	NaN	NaN	156.363	160.097	160.363	NaN
160.331	4	rest.jpg	NaN	NaN	160.331	164.067	164.331	NaN
164.3	4	rest.jpg	NaN	NaN	164.3	168.032	168.3	NaN
168.3	4	Aircraft2_90%_9.jpg	1	0.9	168.3	172.034	169.851	1
172.32	4	Aircraft2_90%_6.jpg	1	0.9	172.32	176.056	174.016	1
176.336	4	Aircraft1_90%_23.jpg	0	0.9	176.336	180.07	178.075	0
180.355	4	Aircraft1_90%_21.jpg	0	0.9	180.355	184.089	182.158	0
184.374	4	Aircraft2_90%_36.jpg	1	0.9	184.374	188.106	186.572	1
188.395	4	rest.jpg	NaN	NaN	188.395	192.125	192.395	NaN
192.376	4	rest.jpg	NaN	NaN	192.376	196.11	196.376	NaN
196.344	4	rest.jpg	NaN	NaN	196.344	200.076	200.344	NaN
200.401	4	Aircraft2_70%_31.jpg	1	0.75	200.401	204.131	201.918	1
204.407	4	Aircraft1_70%_4.jpg	0	0.75	204.407	208.141	206.047	0
208.428	4	Aircraft2_70%_20.jpg	1	0.75	208.428	212.164	210.386	1
212.451	4	Aircraft1_70%_7.jpg	0	0.75	212.451	216.182	214.447	0
216.511	4	Aircraft1_70%_8.jpg	0	0.75	216.511	220.246	217.516	0
220.519	4	rest.jpg	NaN	NaN	220.519	224.253	224.519	NaN
224.487	4	rest.jpg	NaN	NaN	224.487	228.222	228.487	NaN
228.472	4	rest.jpg	NaN	NaN	228.472	232.209	232.472	NaN
232.535	4	Aircraft2_10%_31.jpg	1	0.1	232.535	236.264	233.855	1
236.559	4	Aircraft1_10%_4.jpg	0	0.1	236.559	240.296	237.556	0
240.568	4	Aircraft2_10%_20.jpg	1	0.1	240.568	244.298	241.459	1
244.621	4	Aircraft1_10%_7.jpg	0	0.1	244.621	248.352	245.351	0
248.628	4	Aircraft1_10%_8.jpg	0	0.1	248.628	252.36	249.38	0
252.65	4	rest.jpg	NaN	NaN	252.65	256.385	256.65	NaN
256.619	4	rest.jpg	NaN	NaN	256.619	260.351	260.619	NaN
260.6	4	rest.jpg	NaN	NaN	260.6	264.329	264.6	NaN
264.615	4	Aircraft2_90%_41.jpg	1	0.9	264.615	268.344	266.079	1
268.616	4	Aircraft1_90%_22.jpg	0	0.9	268.616	272.345	269.949	0
272.629	4	Aircraft1_90%_44.jpg	0	0.9	272.629	276.366	273.883	0
276.637	4	Aircraft1_90%_1.jpg	0	0.9	276.637	280.365	278.104	0
280.645	4	Aircraft2_90%_37.jpg	1	0.9	280.645	284.381	281.664	1
284.652	4	rest.jpg	NaN	NaN	284.652	288.381	288.652	NaN
288.623	4	rest.jpg	NaN	NaN	288.623	292.352	292.623	NaN
292.599	4	rest.jpg	NaN	NaN	292.599	296.331	296.599	NaN
296.637	4	Aircraft2_70%_41.jpg	1	0.75	296.637	300.366	297.697	1
300.657	4	Aircraft1_70%_22.jpg	0	0.75	300.657	304.386	302.321	0
304.667	4	Aircraft1_70%_44.jpg	0	0.75	304.667	308.398	306.684	0
308.676	4	Aircraft1_70%_1.jpg	0	0.75	308.676	312.407	310.356	0
312.694	4	Aircraft2_70%_37.jpg	1	0.75	312.694	316.428	314.353	1
316.704	4	rest.jpg	NaN	NaN	316.704	320.439	320.704	NaN
320.669	4	rest.jpg	NaN	NaN	320.669	324.401	324.669	NaN
324.648	4	rest.jpg	NaN	NaN	324.648	328.38	328.648	NaN
328.652	4	Aircraft2_10%_33.jpg	1	0.1	328.652	332.383	330.334	1
332.67	4	Aircraft2_10%_38.jpg	1	0.1	332.67	336.399	334.531	1
336.719	4	Aircraft1_10%_30.jpg	0	0.1	336.719	340.448	337.774	0
340.728	4	Aircraft1_10%_41.jpg	0	0.1	340.728	344.458	341.42	0
344.733	4	Aircraft1_10%_18.jpg	0	0.1	344.733	348.465	345.566	0
348.74	4	rest.jpg	NaN	NaN	348.74	352.473	352.74	NaN
352.72	4	rest.jpg	NaN	NaN	352.72	356.449	356.72	NaN
356.693	4	rest.jpg	NaN	NaN	356.693	360.422	360.693	NaN
360.708	4	Aircraft2_90%_23.jpg	1	0.9	360.708	364.443	362.089	1
364.763	4	Aircraft1_90%_28.jpg	0	0.9	364.763	368.494	366.574	0
368.762	4	Aircraft2_90%_13.jpg	1	0.9	368.762	372.492	370.368	1
372.773	4	Aircraft1_90%_45.jpg	0	0.9	372.773	376.509	375.094	0
376.79	4	Aircraft1_90%_37.jpg	0	0.9	376.79	380.526	377.86	0
380.814	4	rest.jpg	NaN	NaN	380.814	384.548	384.814	NaN
384.782	4	rest.jpg	NaN	NaN	384.782	388.51	388.782	NaN
388.741	4	rest.jpg	NaN	NaN	388.741	392.476	392.741	NaN
392.76	4	Aircraft1_70%_2.jpg	0	0.75	392.76	396.489	394.172	0
396.774	4	Aircraft1_70%_39.jpg	0	0.75	396.774	400.503	398.522	0
400.807	4	Aircraft2_70%_26.jpg	1	0.75	400.807	404.536	402.384	1
404.819	4	Aircraft1_70%_15.jpg	0	0.75	404.819	408.554	405.686	0
408.839	4	Aircraft2_70%_16.jpg	1	0.75	408.839	412.57	410.467	1
412.842	4	rest.jpg	NaN	NaN	412.842	416.574	416.842	NaN
416.808	4	rest.jpg	NaN	NaN	416.808	420.544	420.808	NaN
420.778	4	rest.jpg	NaN	NaN	420.778	424.506	424.778	NaN
424.803	4	Aircraft2_10%_4.jpg	1	0.1	424.803	428.532	425.683	1
428.818	4	Aircraft1_10%_43.jpg	0	0.1	428.818	432.552	429.642	0
432.842	4	Aircraft1_10%_9.jpg	0	0.1	432.842	436.571	433.634	0
436.892	4	Aircraft1_10%_11.jpg	0	0.1	436.892	440.627	437.641	0
440.898	4	Aircraft1_10%_50.jpg	0	0.1	440.898	444.629	441.649	0
444.914	4	rest.jpg	NaN	NaN	444.914	448.651	448.914	NaN
448.885	4	rest.jpg	NaN	NaN	448.885	452.616	452.885	NaN
452.865	4	rest.jpg	NaN	NaN	452.865	456.597	456.865	NaN
456.881	4	Aircraft1_90%_38.jpg	0	0.9	456.881	460.609	458.273	0
460.885	4	Aircraft2_90%_21.jpg	1	0.9	460.885	464.616	462.36	1
464.896	4	Aircraft1_90%_16.jpg	0	0.9	464.896	468.627	466.612	0
468.896	4	Aircraft1_90%_46.jpg	0	0.9	468.896	472.627	470.663	0
472.94	4	Aircraft2_90%_40.jpg	1	0.9	472.94	476.675	475.158	1
476.948	4	rest.jpg	NaN	NaN	476.948	480.685	480.948	NaN
480.935	4	rest.jpg	NaN	NaN	480.935	484.671	484.935	NaN
484.908	4	rest.jpg	NaN	NaN	484.908	488.637	488.908	NaN
488.906	4	Aircraft1_70%_36.jpg	0	0.75	488.906	492.641	490.487	0
492.955	4	Aircraft1_70%_35.jpg	0	0.75	492.955	496.683	494.531	0
496.956	4	Aircraft2_70%_3.jpg	1	0.75	496.956	500.686	498.724	1
500.994	4	Aircraft1_70%_5.jpg	0	0.75	500.994	504.725	502.171	0
504.999	4	Aircraft1_70%_48.jpg	0	0.75	504.999	508.733	506.539	0
509.006	4	rest.jpg	NaN	NaN	509.006	512.737	513.006	NaN
512.985	4	rest.jpg	NaN	NaN	512.985	516.72	516.985	NaN
516.955	4	rest.jpg	NaN	NaN	516.955	520.689	520.955	NaN
520.972	4	Aircraft2_10%_18.jpg	1	0.1	520.972	524.708	522.125	1
524.994	4	Aircraft1_10%_29.jpg	0	0.1	524.994	528.729	526.612	0
529.043	4	Aircraft2_10%_1.jpg	1	0.1	529.043	532.773	529.738	1
533.061	4	Aircraft1_10%_26.jpg	0	0.1	533.061	536.793	533.732	0
537.099	4	Aircraft2_10%_34.jpg	1	0.1	537.099	540.831	537.777	1
541.117	4	rest.jpg	NaN	NaN	541.117	544.85	545.117	NaN
545.104	4	rest.jpg	NaN	NaN	545.104	548.84	549.104	NaN
549.089	4	rest.jpg	NaN	NaN	549.089	552.823	553.089	NaN
553.097	4	Aircraft2_90%_30.jpg	1	0.9	553.097	556.831	554.58	1
557.13	4	Aircraft2_90%_27.jpg	1	0.9	557.13	560.859	559.261	1
561.127	4	Aircraft2_90%_50.jpg	1	0.9	561.127	564.856	563.248	1
565.133	4	Aircraft2_90%_29.jpg	1	0.9	565.133	568.863	566.29	1
569.129	4	Aircraft1_90%_6.jpg	0	0.9	569.129	572.86	570.038	0
573.141	4	rest.jpg	NaN	NaN	573.141	576.873	577.141	NaN
577.122	4	rest.jpg	NaN	NaN	577.122	580.854	581.122	NaN
581.103	4	rest.jpg	NaN	NaN	581.103	584.832	585.103	NaN
585.103	4	Aircraft2_70%_17.jpg	1	0.75	585.103	588.835	585.96	1
589.107	4	Aircraft2_70%_11.jpg	1	0.75	589.107	592.842	591.471	1
593.122	4	Aircraft1_70%_20.jpg	0	0.75	593.122	596.854	595.163	0
597.131	4	Aircraft2_70%_47.jpg	1	0.75	597.131	600.86	599.238	1
601.167	4	Aircraft2_70%_45.jpg	1	0.75	601.167	604.897	602.322	1
605.17	4	rest.jpg	NaN	NaN	605.17	608.9	609.17	NaN
609.134	4	rest.jpg	NaN	NaN	609.134	612.863	613.134	NaN
613.097	4	rest.jpg	NaN	NaN	613.097	616.828	617.097	NaN
617.138	4	Aircraft1_10%_32.jpg	0	0.1	617.138	620.872	617.995	0
621.201	4	Aircraft1_10%_49.jpg	0	0.1	621.201	624.93	621.868	0
625.217	4	Aircraft2_10%_22.jpg	1	0.1	625.217	628.951	626.38	1
629.268	4	Aircraft1_10%_34.jpg	0	0.1	629.268	633.005	630.709	0
633.282	4	Aircraft1_10%_14.jpg	0	0.1	633.282	637.011	634.109	0
637.287	4	rest.jpg	NaN	NaN	637.287	641.015	641.287	NaN
641.248	4	rest.jpg	NaN	NaN	641.248	644.977	645.248	NaN
645.223	4	rest.jpg	NaN	NaN	645.223	648.957	649.223	NaN
649.242	4	Aircraft1_90%_1.jpg	0	0.9	649.242	652.975	651.637	0
653.295	4	Aircraft1_90%_47.jpg	0	0.9	653.295	657.026	655.502	0
657.343	4	Aircraft1_90%_40.jpg	0	0.9	657.343	661.077	658.118	0
661.347	4	Aircraft1_90%_27.jpg	0	0.9	661.347	665.081	662.592	0
665.39	4	Aircraft2_90%_35.jpg	1	0.9	665.39	669.119	666.219	1
669.406	4	rest.jpg	NaN	NaN	669.406	673.141	673.406	NaN
673.374	4	rest.jpg	NaN	NaN	673.374	677.108	677.374	NaN
677.352	4	rest.jpg	NaN	NaN	677.352	681.081	681.352	NaN
681.369	4	Aircraft2_70%_23.jpg	1	0.75	681.369	685.1	682.711	1
685.442	4	Aircraft1_70%_28.jpg	0	0.75	685.442	689.178	686.49	0
689.481	4	Aircraft2_70%_13.jpg	1	0.75	689.481	693.216	690.445	1
693.529	4	Aircraft1_70%_45.jpg	0	0.75	693.529	697.259	694.399	0
697.535	4	Aircraft1_70%_37.jpg	0	0.75	697.535	701.27	698.902	0
701.558	4	rest.jpg	NaN	NaN	701.558	705.293	705.558	NaN
705.526	4	rest.jpg	NaN	NaN	705.526	709.258	709.526	NaN
709.507	4	rest.jpg	NaN	NaN	709.507	713.236	713.507	NaN
713.548	4	Aircraft1_10%_25.jpg	0	0.1	713.548	717.279	714.304	0
717.555	4	Aircraft2_10%_49.jpg	1	0.1	717.555	721.289	718.54	1
721.575	4	Aircraft2_10%_10.jpg	1	0.1	721.575	725.312	722.234	1
725.63	4	Aircraft2_10%_12.jpg	1	0.1	725.63	729.359	726.233	1
729.645	4	Aircraft2_10%_7.jpg	1	0.1	729.645	733.376	730.311	1
733.65	4	rest.jpg	NaN	NaN	733.65	737.379	737.65	NaN
737.623	4	rest.jpg	NaN	NaN	737.623	741.355	741.623	NaN
741.605	4	rest.jpg	NaN	NaN	741.605	745.335	745.605	NaN
745.615	4	Aircraft2_90%_17.jpg	1	0.9	745.615	749.35	747.304	1
749.654	4	Aircraft2_90%_11.jpg	1	0.9	749.654	753.383	751.112	1
753.668	4	Aircraft1_90%_20.jpg	0	0.9	753.668	757.403	754.996	0
757.719	4	Aircraft2_90%_47.jpg	1	0.9	757.719	761.448	758.448	1
761.731	4	Aircraft2_90%_45.jpg	1	0.9	761.731	765.464	763.423	1
765.751	4	rest.jpg	NaN	NaN	765.751	769.482	769.751	NaN
769.715	4	rest.jpg	NaN	NaN	769.715	773.444	773.715	NaN
773.696	4	rest.jpg	NaN	NaN	773.696	777.428	777.696	NaN
777.736	4	Aircraft1_70%_38.jpg	0	0.75	777.736	781.469	778.722	0
781.751	4	Aircraft2_70%_21.jpg	1	0.75	781.751	785.48	782.96	1
785.764	4	Aircraft1_70%_16.jpg	0	0.75	785.764	789.494	786.998	0
789.788	4	Aircraft1_70%_46.jpg	0	0.75	789.788	793.517	791.289	0
793.791	4	Aircraft2_70%_40.jpg	1	0.75	793.791	797.521	794.659	1
797.793	4	rest.jpg	NaN	NaN	797.793	801.529	801.793	NaN
801.779	4	rest.jpg	NaN	NaN	801.779	805.516	805.779	NaN
805.767	4	rest.jpg	NaN	NaN	805.767	809.501	809.767	NaN
809.818	4	Aircraft1_10%_3.jpg	0	0.1	809.818	813.554	810.642	0
813.839	4	Aircraft2_10%_28.jpg	1	0.1	813.839	817.573	814.656	1
817.847	4	Aircraft1_10%_24.jpg	0	0.1	817.847	821.578	818.522	0
821.874	4	Aircraft2_10%_39.jpg	1	0.1	821.874	825.603	822.561	1
825.877	4	Aircraft2_10%_8.jpg	1	0.1	825.877	829.606	826.951	1
829.893	4	rest.jpg	NaN	NaN	829.893	833.628	833.893	NaN
833.878	4	rest.jpg	NaN	NaN	833.878	837.609	837.878	NaN
837.861	4	rest.jpg	NaN	NaN	837.861	841.59	841.861	NaN
841.87	4	Aircraft1_90%_36.jpg	0	0.9	841.87	845.599	843.217	0
845.883	4	Aircraft1_90%_35.jpg	0	0.9	845.883	849.614	847.786	0
849.914	4	Aircraft2_90%_3.jpg	1	0.9	849.914	853.649	851.963	1
853.962	4	Aircraft1_90%_5.jpg	0	0.9	853.962	857.7	855.615	0
857.98	4	Aircraft1_90%_48.jpg	0	0.9	857.98	861.712	859.064	0
861.986	4	rest.jpg	NaN	NaN	861.986	865.719	865.986	NaN
865.953	4	rest.jpg	NaN	NaN	865.953	869.686	869.953	NaN
869.936	4	rest.jpg	NaN	NaN	869.936	873.668	873.936	NaN
873.943	4	Aircraft2_70%_30.jpg	1	0.75	873.943	877.687	875.556	1
877.999	4	Aircraft2_70%_27.jpg	1	0.75	877.999	881.737	879.948	1
882.008	4	Aircraft2_70%_50.jpg	1	0.75	882.008	885.741	884.04	1
886.065	4	Aircraft2_70%_29.jpg	1	0.75	886.065	889.795	886.99	1
890.118	4	Aircraft1_70%_6.jpg	0	0.75	890.118	893.847	891.589	0
894.137	4	rest.jpg	NaN	NaN	894.137	897.868	898.137	NaN
898.115	4	rest.jpg	NaN	NaN	898.115	901.847	902.115	NaN
902.099	4	rest.jpg	NaN	NaN	902.099	905.834	906.099	NaN
906.167	4	Aircraft2_10%_14.jpg	1	0.1	906.167	909.903	907.453	1
910.176	4	Aircraft2_10%_5.jpg	1	0.1	910.176	913.905	910.721	1
914.194	4	Aircraft2_10%_15.jpg	1	0.1	914.194	917.925	914.789	1
918.192	4	Aircraft2_10%_19.jpg	1	0.1	918.192	921.929	918.883	1
922.213	4	Aircraft1_10%_31.jpg	0	0.1	922.213	925.943	923.112	0
926.227	4	rest.jpg	NaN	NaN	926.227	929.959	930.227	NaN
930.208	4	rest.jpg	NaN	NaN	930.208	933.939	934.208	NaN
934.175	4	rest.jpg	NaN	NaN	934.175	937.911	938.175	NaN
938.196	4	Aircraft1_90%_2.jpg	0	0.9	938.196	941.93	939.924	0
942.217	4	Aircraft1_90%_39.jpg	0	0.9	942.217	945.952	943.378	0
946.236	4	Aircraft2_90%_26.jpg	1	0.9	946.236	949.97	947.838	1
950.248	4	Aircraft1_90%_15.jpg	0	0.9	950.248	953.98	951.928	0
954.303	4	Aircraft2_90%_16.jpg	1	0.9	954.303	958.035	956.574	1
958.309	4	rest.jpg	NaN	NaN	958.309	962.037	962.309	NaN
962.27	4	rest.jpg	NaN	NaN	962.27	966.001	966.27	NaN
966.258	4	rest.jpg	NaN	NaN	966.258	969.99	970.258	NaN
970.264	4	Aircraft1_70%_1.jpg	0	0.75	970.264	973.994	971.953	0
974.339	4	Aircraft1_70%_47.jpg	0	0.75	974.339	978.075	975.939	0
978.414	4	Aircraft1_70%_40.jpg	0	0.75	978.414	982.145	980.548	0
982.419	4	Aircraft1_70%_27.jpg	0	0.75	982.419	986.151	984.06	0
986.44	4	Aircraft2_70%_35.jpg	1	0.75	986.44	990.172	988.064	1
990.446	4	rest.jpg	NaN	NaN	990.446	994.182	994.446	NaN
994.416	4	rest.jpg	NaN	NaN	994.416	998.15	998.416	NaN
998.399	4	rest.jpg	NaN	NaN	998.399	1002.128	1002.399	NaN
