sub	run	block	trail	oneset	duration	stim_file	stim_lable	level of occlusion	stim_started	stim_stopped	key_time	key_fix
51	2	1	1	39.99	4	Aircraft1_10%_17.jpg	0	0.1	39.99	43.726	41.182	0
51	2	1	2	44.019	4	Aircraft2_10%_42.jpg	1	0.1	44.019	47.752	44.812	1
51	2	1	3	48.04	4	Aircraft2_10%_44.jpg	1	0.1	48.04	51.771	48.665	1
51	2	1	4	52.049	4	Aircraft1_10%_10.jpg	0	0.1	52.049	55.789	53.304	0
51	2	1	5	56.077	4	Aircraft2_10%_25.jpg	1	0.1	56.077	59.809	56.766	1
51	2	1	6	60.099	4	rest.jpg	n/a	n/a	60.099	63.827	64.099	n/a
51	2	1	7	64.061	4	rest.jpg	n/a	n/a	64.061	67.796	68.061	n/a
51	2	1	8	68.029	4	rest.jpg	n/a	n/a	68.029	71.761	72.029	n/a
51	2	2	9	72.042	4	Aircraft1_90%_12.jpg	0	0.9	72.042	75.778	74.031	0
51	2	2	10	76.067	4	Aircraft2_90%_32.jpg	1	0.9	76.067	79.796	77.606	1
51	2	2	11	80.065	4	Aircraft2_90%_48.jpg	1	0.9	80.065	83.794	82.296	1
51	2	2	12	84.078	4	Aircraft1_90%_19.jpg	0	0.9	84.078	87.812	84.986	0
51	2	2	13	88.083	4	Aircraft1_90%_33.jpg	0	0.9	88.083	91.818	90.951	0
51	2	2	14	92.108	4	rest.jpg	n/a	n/a	92.108	95.845	96.108	n/a
51	2	2	15	96.083	4	rest.jpg	n/a	n/a	96.083	99.817	100.083	n/a
51	2	2	16	100.056	4	rest.jpg	n/a	n/a	100.056	103.785	104.056	n/a
51	2	3	17	104.069	4	Aircraft2_70%_33.jpg	1	0.75	104.069	107.805	105.522	1
51	2	3	18	108.1	4	Aircraft2_70%_38.jpg	1	0.75	108.1	111.835	109.05	1
51	2	3	19	112.109	4	Aircraft1_70%_30.jpg	0	0.75	112.109	115.843	112.8	0
51	2	3	20	116.134	4	Aircraft1_70%_41.jpg	0	0.75	116.134	119.863	117.036	0
51	2	3	21	120.14	4	Aircraft1_70%_18.jpg	0	0.75	120.14	123.875	122.146	0
51	2	3	22	124.165	4	rest.jpg	n/a	n/a	124.165	127.901	128.165	n/a
51	2	3	23	128.137	4	rest.jpg	n/a	n/a	128.137	131.871	132.137	n/a
51	2	3	24	132.124	4	rest.jpg	n/a	n/a	132.124	135.857	136.124	n/a
51	2	4	25	136.135	4	Aircraft2_10%_24.jpg	1	0.1	136.135	139.864	138.086	1
51	2	4	26	140.158	4	Aircraft2_10%_2.jpg	1	0.1	140.158	143.893	140.945	1
51	2	4	27	144.168	4	Aircraft2_10%_43.jpg	1	0.1	144.168	147.897	144.973	1
51	2	4	28	148.192	4	Aircraft2_10%_46.jpg	1	0.1	148.192	151.921	149.206	1
51	2	4	29	152.211	4	Aircraft1_10%_42.jpg	0	0.1	152.211	155.94	154.011	0
51	2	4	30	156.228	4	rest.jpg	n/a	n/a	156.228	159.959	160.228	n/a
51	2	4	31	160.197	4	rest.jpg	n/a	n/a	160.197	163.928	164.197	n/a
51	2	4	32	164.175	4	rest.jpg	n/a	n/a	164.175	167.911	168.175	n/a
51	2	5	33	168.197	4	Aircraft2_90%_9.jpg	1	0.9	168.197	171.926	170.289	1
51	2	5	34	172.199	4	Aircraft2_90%_6.jpg	1	0.9	172.199	175.935	173.621	1
51	2	5	35	176.202	4	Aircraft1_90%_23.jpg	0	0.9	176.202	179.936	177.432	0
51	2	5	36	180.203	4	Aircraft1_90%_21.jpg	0	0.9	180.203	183.939	181.987	0
51	2	5	37	184.207	4	Aircraft2_90%_36.jpg	1	0.9	184.207	187.942	185.685	1
51	2	5	38	188.231	4	rest.jpg	n/a	n/a	188.231	191.968	192.231	n/a
51	2	5	39	192.203	4	rest.jpg	n/a	n/a	192.203	195.938	196.203	n/a
51	2	5	40	196.173	4	rest.jpg	n/a	n/a	196.173	199.905	200.173	n/a
51	2	6	41	200.199	4	Aircraft2_70%_31.jpg	1	0.75	200.199	203.928	201.977	1
51	2	6	42	204.224	4	Aircraft1_70%_4.jpg	0	0.75	204.224	207.954	205.271	0
51	2	6	43	208.237	4	Aircraft2_70%_20.jpg	1	0.75	208.237	211.969	210.029	1
51	2	6	44	212.256	4	Aircraft1_70%_7.jpg	0	0.75	212.256	215.985	214.003	0
51	2	6	45	216.271	4	Aircraft1_70%_8.jpg	0	0.75	216.271	220.002	217.54	0
51	2	6	46	220.271	4	rest.jpg	n/a	n/a	220.271	224.007	224.271	n/a
51	2	6	47	224.258	4	rest.jpg	n/a	n/a	224.258	227.987	228.258	n/a
51	2	6	48	228.237	4	rest.jpg	n/a	n/a	228.237	231.969	232.237	n/a
51	2	7	49	232.238	4	Aircraft2_10%_31.jpg	1	0.1	232.238	235.972	233.995	1
51	2	7	50	236.262	4	Aircraft1_10%_4.jpg	0	0.1	236.262	239.993	236.93	0
51	2	7	51	240.278	4	Aircraft2_10%_20.jpg	1	0.1	240.278	244.006	241.023	1
51	2	7	52	244.298	4	Aircraft1_10%_7.jpg	0	0.1	244.298	248.027	244.857	0
51	2	7	53	248.313	4	Aircraft1_10%_8.jpg	0	0.1	248.313	252.045	248.945	0
51	2	7	54	252.326	4	rest.jpg	n/a	n/a	252.326	256.062	256.326	n/a
51	2	7	55	256.294	4	rest.jpg	n/a	n/a	256.294	260.028	260.294	n/a
51	2	7	56	260.277	4	rest.jpg	n/a	n/a	260.277	264.014	264.277	n/a
51	2	8	57	264.276	4	Aircraft2_90%_41.jpg	1	0.9	264.276	268.008	265.462	1
51	2	8	58	268.272	4	Aircraft1_90%_22.jpg	0	0.9	268.272	272.004	269.014	0
51	2	8	59	272.266	4	Aircraft1_90%_44.jpg	0	0.9	272.266	275.995	273.297	0
51	2	8	60	276.259	4	Aircraft1_90%_1.jpg	0	0.9	276.259	279.995	277.829	0
51	2	8	61	280.258	4	Aircraft2_90%_37.jpg	1	0.9	280.258	283.989	281.163	1
51	2	8	62	284.275	4	rest.jpg	n/a	n/a	284.275	288.008	288.275	n/a
51	2	8	63	288.251	4	rest.jpg	n/a	n/a	288.251	291.985	292.251	n/a
51	2	8	64	292.234	4	rest.jpg	n/a	n/a	292.234	295.963	296.234	n/a
51	2	9	65	296.229	4	Aircraft2_70%_41.jpg	1	0.75	296.229	299.958	298.209	1
51	2	9	66	300.246	4	Aircraft1_70%_22.jpg	0	0.75	300.246	303.977	301.371	0
51	2	9	67	304.247	4	Aircraft1_70%_44.jpg	0	0.75	304.247	307.978	305.191	0
51	2	9	68	308.264	4	Aircraft1_70%_1.jpg	0	0.75	308.264	311.999	310.009	0
51	2	9	69	312.266	4	Aircraft2_70%_37.jpg	1	0.75	312.266	316.001	313.91	1
51	2	9	70	316.284	4	rest.jpg	n/a	n/a	316.284	320.016	320.284	n/a
51	2	9	71	320.258	4	rest.jpg	n/a	n/a	320.258	323.993	324.258	n/a
51	2	9	72	324.241	4	rest.jpg	n/a	n/a	324.241	327.971	328.241	n/a
51	2	10	73	328.239	4	Aircraft2_10%_33.jpg	1	0.1	328.239	331.974	329.489	1
51	2	10	74	332.264	4	Aircraft2_10%_38.jpg	1	0.1	332.264	335.993	332.997	1
51	2	10	75	336.279	4	Aircraft1_10%_30.jpg	0	0.1	336.279	340.015	336.708	0
51	2	10	76	340.283	4	Aircraft1_10%_41.jpg	0	0.1	340.283	344.016	340.902	0
51	2	10	77	344.284	4	Aircraft1_10%_18.jpg	0	0.1	344.284	348.014	344.888	0
51	2	10	78	348.279	4	rest.jpg	n/a	n/a	348.279	352.014	352.279	n/a
51	2	10	79	352.262	4	rest.jpg	n/a	n/a	352.262	355.993	356.262	n/a
51	2	10	80	356.226	4	rest.jpg	n/a	n/a	356.226	359.955	360.226	n/a
51	2	11	81	360.215	4	Aircraft2_90%_23.jpg	1	0.9	360.215	363.949	362.186	1
51	2	11	82	364.211	4	Aircraft1_90%_28.jpg	0	0.9	364.211	367.942	366.427	0
51	2	11	83	368.222	4	Aircraft2_90%_13.jpg	1	0.9	368.222	371.951	370.673	1
51	2	11	84	372.216	4	Aircraft1_90%_45.jpg	0	0.9	372.216	375.948	373.513	0
51	2	11	85	376.212	4	Aircraft1_90%_37.jpg	0	0.9	376.212	379.943	377.219	0
51	2	11	86	380.211	4	rest.jpg	n/a	n/a	380.211	383.942	384.211	n/a
51	2	11	87	384.188	4	rest.jpg	n/a	n/a	384.188	387.919	388.188	n/a
51	2	11	88	388.17	4	rest.jpg	n/a	n/a	388.17	391.9	392.17	n/a
51	2	12	89	392.169	4	Aircraft1_70%_2.jpg	0	0.75	392.169	395.903	393.429	0
51	2	12	90	396.191	4	Aircraft1_70%_39.jpg	0	0.75	396.191	399.923	396.852	0
51	2	12	91	400.208	4	Aircraft2_70%_26.jpg	1	0.75	400.208	403.937	402.008	1
51	2	12	92	404.224	4	Aircraft1_70%_15.jpg	0	0.75	404.224	407.954	405.134	0
51	2	12	93	408.228	4	Aircraft2_70%_16.jpg	1	0.75	408.228	411.957	409.61	1
51	2	12	94	412.24	4	rest.jpg	n/a	n/a	412.24	415.969	416.24	n/a
51	2	12	95	416.221	4	rest.jpg	n/a	n/a	416.221	419.951	420.221	n/a
51	2	12	96	420.202	4	rest.jpg	n/a	n/a	420.202	423.931	424.202	n/a
51	2	13	97	424.2	4	Aircraft2_10%_4.jpg	1	0.1	424.2	427.928	425.301	1
51	2	13	98	428.218	4	Aircraft1_10%_43.jpg	0	0.1	428.218	431.947	428.913	0
51	2	13	99	432.235	4	Aircraft1_10%_9.jpg	0	0.1	432.235	435.966	432.814	0
51	2	13	100	436.256	4	Aircraft1_10%_11.jpg	0	0.1	436.256	439.986	436.931	0
51	2	13	101	440.269	4	Aircraft1_10%_50.jpg	0	0.1	440.269	443.998	441.561	0
51	2	13	102	444.28	4	rest.jpg	n/a	n/a	444.28	448.015	448.28	n/a
51	2	13	103	448.247	4	rest.jpg	n/a	n/a	448.247	451.976	452.247	n/a
51	2	13	104	452.223	4	rest.jpg	n/a	n/a	452.223	455.958	456.223	n/a
51	2	14	105	456.242	4	Aircraft1_90%_38.jpg	0	0.9	456.242	459.972	457.566	0
51	2	14	106	460.258	4	Aircraft2_90%_21.jpg	1	0.9	460.258	463.991	461.47	1
51	2	14	107	464.267	4	Aircraft1_90%_16.jpg	0	0.9	464.267	468.002	465.172	0
51	2	14	108	468.293	4	Aircraft1_90%_46.jpg	0	0.9	468.293	472.024	469.951	0
51	2	14	109	472.29	4	Aircraft2_90%_40.jpg	1	0.9	472.29	476.025	474.445	1
51	2	14	110	476.315	4	rest.jpg	n/a	n/a	476.315	480.048	480.315	n/a
51	2	14	111	480.282	4	rest.jpg	n/a	n/a	480.282	484.012	484.282	n/a
51	2	14	112	484.26	4	rest.jpg	n/a	n/a	484.26	487.996	488.26	n/a
51	2	15	113	488.267	4	Aircraft1_70%_36.jpg	0	0.75	488.267	491.996	490.124	0
51	2	15	114	492.285	4	Aircraft1_70%_35.jpg	0	0.75	492.285	496.019	493.388	0
51	2	15	115	496.304	4	Aircraft2_70%_3.jpg	1	0.75	496.304	500.032	498.599	1
51	2	15	116	500.3	4	Aircraft1_70%_5.jpg	0	0.75	500.3	504.036	501.497	0
51	2	15	117	504.327	4	Aircraft1_70%_48.jpg	0	0.75	504.327	508.059	505.063	0
51	2	15	118	508.348	4	rest.jpg	n/a	n/a	508.348	512.077	512.348	n/a
51	2	15	119	512.311	4	rest.jpg	n/a	n/a	512.311	516.045	516.311	n/a
51	2	15	120	516.28	4	rest.jpg	n/a	n/a	516.28	520.011	520.28	n/a
51	2	16	121	520.282	4	Aircraft2_10%_18.jpg	1	0.1	520.282	524.017	521.496	1
51	2	16	122	524.311	4	Aircraft1_10%_29.jpg	0	0.1	524.311	528.04	524.731	0
51	2	16	123	528.314	4	Aircraft2_10%_1.jpg	1	0.1	528.314	532.049	528.99	1
51	2	16	124	532.34	4	Aircraft1_10%_26.jpg	0	0.1	532.34	536.073	533.002	0
51	2	16	125	536.352	4	Aircraft2_10%_34.jpg	1	0.1	536.352	540.084	537.289	1
51	2	16	126	540.354	4	rest.jpg	n/a	n/a	540.354	544.083	544.354	n/a
51	2	16	127	544.332	4	rest.jpg	n/a	n/a	544.332	548.061	548.332	n/a
51	2	16	128	548.308	4	rest.jpg	n/a	n/a	548.308	552.04	552.308	n/a
51	2	17	129	552.308	4	Aircraft2_90%_30.jpg	1	0.9	552.308	556.039	554.315	1
51	2	17	130	556.306	4	Aircraft2_90%_27.jpg	1	0.9	556.306	560.035	557.026	1
51	2	17	131	560.303	4	Aircraft2_90%_50.jpg	1	0.9	560.303	564.032	561.246	1
51	2	17	132	564.319	4	Aircraft2_90%_29.jpg	1	0.9	564.319	568.053	565.393	1
51	2	17	133	568.321	4	Aircraft1_90%_6.jpg	0	0.9	568.321	572.057	570.405	0
51	2	17	134	572.326	4	rest.jpg	n/a	n/a	572.326	576.061	576.326	n/a
51	2	17	135	576.304	4	rest.jpg	n/a	n/a	576.304	580.033	580.304	n/a
51	2	17	136	580.281	4	rest.jpg	n/a	n/a	580.281	584.012	584.281	n/a
51	2	18	137	584.279	4	Aircraft2_70%_17.jpg	1	0.75	584.279	588.01	585.766	1
51	2	18	138	588.297	4	Aircraft2_70%_11.jpg	1	0.75	588.297	592.027	589.479	1
51	2	18	139	592.296	4	Aircraft1_70%_20.jpg	0	0.75	592.296	596.028	593.606	0
51	2	18	140	596.301	4	Aircraft2_70%_47.jpg	1	0.75	596.301	600.037	597.333	1
51	2	18	141	600.329	4	Aircraft2_70%_45.jpg	1	0.75	600.329	604.063	602.083	1
51	2	18	142	604.352	4	rest.jpg	n/a	n/a	604.352	608.086	608.352	n/a
51	2	18	143	608.318	4	rest.jpg	n/a	n/a	608.318	612.047	612.318	n/a
51	2	18	144	612.279	4	rest.jpg	n/a	n/a	612.279	616.009	616.279	n/a
51	2	19	145	616.283	4	Aircraft1_10%_32.jpg	0	0.1	616.283	620.013	617.264	0
51	2	19	146	620.306	4	Aircraft1_10%_49.jpg	0	0.1	620.306	624.04	620.949	0
51	2	19	147	624.314	4	Aircraft2_10%_22.jpg	1	0.1	624.314	628.05	624.85	1
51	2	19	148	628.325	4	Aircraft1_10%_34.jpg	0	0.1	628.325	632.06	628.915	0
51	2	19	149	632.35	4	Aircraft1_10%_14.jpg	0	0.1	632.35	636.081	635.054	0
51	2	19	150	636.367	4	rest.jpg	n/a	n/a	636.367	640.096	640.367	n/a
51	2	19	151	640.346	4	rest.jpg	n/a	n/a	640.346	644.074	644.346	n/a
51	2	19	152	644.322	4	rest.jpg	n/a	n/a	644.322	648.058	648.322	n/a
51	2	20	153	648.337	4	Aircraft1_90%_1.jpg	0	0.9	648.337	652.066	650.594	0
51	2	20	154	652.35	4	Aircraft1_90%_47.jpg	0	0.9	652.35	656.079	654.434	0
51	2	20	155	656.361	4	Aircraft1_90%_40.jpg	0	0.9	656.361	660.09	658.383	0
51	2	20	156	660.357	4	Aircraft1_90%_27.jpg	0	0.9	660.357	664.087	661.598	0
51	2	20	157	664.372	4	Aircraft2_90%_35.jpg	1	0.9	664.372	668.101	667.326	1
51	2	20	158	668.371	4	rest.jpg	n/a	n/a	668.371	672.1	672.371	n/a
51	2	20	159	672.334	4	rest.jpg	n/a	n/a	672.334	676.063	676.334	n/a
51	2	20	160	676.313	4	rest.jpg	n/a	n/a	676.313	680.042	680.313	n/a
51	2	21	161	680.33	4	Aircraft2_70%_23.jpg	1	0.75	680.33	684.068	682.503	1
51	2	21	162	684.372	4	Aircraft1_70%_28.jpg	0	0.75	684.372	688.101	686.826	0
51	2	21	163	688.374	4	Aircraft2_70%_13.jpg	1	0.75	688.374	692.106	691.468	1
51	2	21	164	692.396	4	Aircraft1_70%_45.jpg	0	0.75	692.396	696.128	693.751	0
51	2	21	165	696.419	4	Aircraft1_70%_37.jpg	0	0.75	696.419	700.15	698.713	0
51	2	21	166	700.421	4	rest.jpg	n/a	n/a	700.421	704.157	704.421	n/a
51	2	21	167	704.401	4	rest.jpg	n/a	n/a	704.401	708.135	708.401	n/a
51	2	21	168	708.385	4	rest.jpg	n/a	n/a	708.385	712.115	712.385	n/a
51	2	22	169	712.407	4	Aircraft1_10%_25.jpg	0	0.1	712.407	716.135	713.314	0
51	2	22	170	716.409	4	Aircraft2_10%_49.jpg	1	0.1	716.409	720.141	717.249	1
51	2	22	171	720.415	4	Aircraft2_10%_10.jpg	1	0.1	720.415	724.144	721.146	1
51	2	22	172	724.42	4	Aircraft2_10%_12.jpg	1	0.1	724.42	728.156	725.125	1
51	2	22	173	728.437	4	Aircraft2_10%_7.jpg	1	0.1	728.437	732.166	729.388	1
51	2	22	174	732.451	4	rest.jpg	n/a	n/a	732.451	736.18	736.451	n/a
51	2	22	175	736.43	4	rest.jpg	n/a	n/a	736.43	740.166	740.43	n/a
51	2	22	176	740.415	4	rest.jpg	n/a	n/a	740.415	744.146	744.415	n/a
51	2	23	177	744.425	4	Aircraft2_90%_17.jpg	1	0.9	744.425	748.154	746.037	1
51	2	23	178	748.439	4	Aircraft2_90%_11.jpg	1	0.9	748.439	752.168	750.227	1
51	2	23	179	752.434	4	Aircraft1_90%_20.jpg	0	0.9	752.434	756.166	753.923	0
51	2	23	180	756.448	4	Aircraft2_90%_47.jpg	1	0.9	756.448	760.182	757.839	1
51	2	23	181	760.447	4	Aircraft2_90%_45.jpg	1	0.9	760.447	764.176	762.126	1
51	2	23	182	764.462	4	rest.jpg	n/a	n/a	764.462	768.196	768.462	n/a
51	2	23	183	768.433	4	rest.jpg	n/a	n/a	768.433	772.165	772.433	n/a
51	2	23	184	772.409	4	rest.jpg	n/a	n/a	772.409	776.14	776.409	n/a
51	2	24	185	776.41	4	Aircraft1_70%_38.jpg	0	0.75	776.41	780.139	777.512	0
51	2	24	186	780.423	4	Aircraft2_70%_21.jpg	1	0.75	780.423	784.154	781.972	1
51	2	24	187	784.428	4	Aircraft1_70%_16.jpg	0	0.75	784.428	788.159	785.499	0
51	2	24	188	788.449	4	Aircraft1_70%_46.jpg	0	0.75	788.449	792.178	789.294	0
51	2	24	189	792.465	4	Aircraft2_70%_40.jpg	1	0.75	792.465	796.194	793.548	1
51	2	24	190	796.463	4	rest.jpg	n/a	n/a	796.463	800.193	800.463	n/a
51	2	24	191	800.442	4	rest.jpg	n/a	n/a	800.442	804.171	804.442	n/a
51	2	24	192	804.405	4	rest.jpg	n/a	n/a	804.405	808.14	808.405	n/a
51	2	25	193	808.417	4	Aircraft1_10%_3.jpg	0	0.1	808.417	812.151	809.326	0
51	2	25	194	812.435	4	Aircraft2_10%_28.jpg	1	0.1	812.435	816.166	813.189	1
51	2	25	195	816.456	4	Aircraft1_10%_24.jpg	0	0.1	816.456	820.191	817.14	0
51	2	25	196	820.467	4	Aircraft2_10%_39.jpg	1	0.1	820.467	824.196	821.233	1
51	2	25	197	824.483	4	Aircraft2_10%_8.jpg	1	0.1	824.483	828.214	825.379	1
51	2	25	198	828.487	4	rest.jpg	n/a	n/a	828.487	832.223	832.487	n/a
51	2	25	199	832.466	4	rest.jpg	n/a	n/a	832.466	836.203	836.466	n/a
51	2	25	200	836.451	4	rest.jpg	n/a	n/a	836.451	840.18	840.451	n/a
51	2	26	201	840.467	4	Aircraft1_90%_36.jpg	0	0.9	840.467	844.203	841.665	0
51	2	26	202	844.471	4	Aircraft1_90%_35.jpg	0	0.9	844.471	848.2	845.052	0
51	2	26	203	848.484	4	Aircraft2_90%_3.jpg	1	0.9	848.484	852.213	850.575	1
51	2	26	204	852.481	4	Aircraft1_90%_5.jpg	0	0.9	852.481	856.217	853.392	0
51	2	26	205	856.496	4	Aircraft1_90%_48.jpg	0	0.9	856.496	860.225	859.332	0
51	2	26	206	860.5	4	rest.jpg	n/a	n/a	860.5	864.235	864.5	n/a
51	2	26	207	864.467	4	rest.jpg	n/a	n/a	864.467	868.203	868.467	n/a
51	2	26	208	868.436	4	rest.jpg	n/a	n/a	868.436	872.165	872.436	n/a
51	2	27	209	872.438	4	Aircraft2_70%_30.jpg	1	0.75	872.438	876.167	874.179	1
51	2	27	210	876.455	4	Aircraft2_70%_27.jpg	1	0.75	876.455	880.184	877.515	1
51	2	27	211	880.453	4	Aircraft2_70%_50.jpg	1	0.75	880.453	884.182	882.458	1
51	2	27	212	884.464	4	Aircraft2_70%_29.jpg	1	0.75	884.464	888.195	885.686	1
51	2	27	213	888.469	4	Aircraft1_70%_6.jpg	0	0.75	888.469	892.199	889.262	0
51	2	27	214	892.491	4	rest.jpg	n/a	n/a	892.491	896.22	896.491	n/a
51	2	27	215	896.454	4	rest.jpg	n/a	n/a	896.454	900.182	900.454	n/a
51	2	27	216	900.429	4	rest.jpg	n/a	n/a	900.429	904.164	904.429	n/a
51	2	28	217	904.438	4	Aircraft2_10%_14.jpg	1	0.1	904.438	908.174	905.736	1
51	2	28	218	908.445	4	Aircraft2_10%_5.jpg	1	0.1	908.445	912.174	909.179	1
51	2	28	219	912.449	4	Aircraft2_10%_15.jpg	1	0.1	912.449	916.184	913.064	1
51	2	28	220	916.455	4	Aircraft2_10%_19.jpg	1	0.1	916.455	920.19	917.59	1
51	2	28	221	920.482	4	Aircraft1_10%_31.jpg	0	0.1	920.482	924.218	921.585	0
51	2	28	222	924.506	4	rest.jpg	n/a	n/a	924.506	928.237	928.506	n/a
51	2	28	223	928.487	4	rest.jpg	n/a	n/a	928.487	932.216	932.487	n/a
51	2	28	224	932.45	4	rest.jpg	n/a	n/a	932.45	936.179	936.45	n/a
51	2	29	225	936.446	4	Aircraft1_90%_2.jpg	0	0.9	936.446	940.181	939.174	0
51	2	29	226	940.464	4	Aircraft1_90%_39.jpg	0	0.9	940.464	944.2	942.634	0
51	2	29	227	944.469	4	Aircraft2_90%_26.jpg	1	0.9	944.469	948.203	945.696	1
51	2	29	228	948.471	4	Aircraft1_90%_15.jpg	0	0.9	948.471	952.205	951.653	0
51	2	29	229	952.476	4	Aircraft2_90%_16.jpg	1	0.9	952.476	956.207	953.192	1
51	2	29	230	956.492	4	rest.jpg	n/a	n/a	956.492	960.226	960.492	n/a
51	2	29	231	960.46	4	rest.jpg	n/a	n/a	960.46	964.195	964.46	n/a
51	2	29	232	964.444	4	rest.jpg	n/a	n/a	964.444	968.176	968.444	n/a
51	2	30	233	968.45	4	Aircraft1_70%_1.jpg	0	0.75	968.45	972.181	970.634	0
51	2	30	234	972.474	4	Aircraft1_70%_47.jpg	0	0.75	972.474	976.209	975.215	0
51	2	30	235	976.497	4	Aircraft1_70%_40.jpg	0	0.75	976.497	980.228	977.142	0
51	2	30	236	980.496	4	Aircraft1_70%_27.jpg	0	0.75	980.496	984.23	981.558	0
51	2	30	237	984.504	4	Aircraft2_70%_35.jpg	1	0.75	984.504	988.235	986.203	1
51	2	30	238	988.523	4	rest.jpg	n/a	n/a	988.523	992.255	992.523	n/a
51	2	30	239	992.505	4	rest.jpg	n/a	n/a	992.505	996.24	996.505	n/a
51	2	30	240	996.472	4	rest.jpg	n/a	n/a	996.472	1000.201	1000.472	n/a
