sub	run	block	trail	oneset	duration	stim_file	stim_lable	level of occlusion	stim_started	stim_stopped	key_time	key_fix
49	2	1	1	40.042	4	Aircraft1_10%_17.jpg	0	0.1	40.042	43.772	41.024	0
49	2	1	2	44.087	4	Aircraft2_10%_42.jpg	1	0.1	44.087	47.822	45.061	1
49	2	1	3	48.096	4	Aircraft2_10%_44.jpg	1	0.1	48.096	51.832	48.919	1
49	2	1	4	52.142	4	Aircraft1_10%_10.jpg	0	0.1	52.142	55.872	52.91	0
49	2	1	5	56.143	4	Aircraft2_10%_25.jpg	1	0.1	56.143	59.874	57.187	1
49	2	1	6	60.193	4	rest.jpg	n/a	n/a	60.193	63.922	64.193	n/a
49	2	1	7	64.181	4	rest.jpg	n/a	n/a	64.181	67.912	68.181	n/a
49	2	1	8	68.147	4	rest.jpg	n/a	n/a	68.147	71.876	72.147	n/a
49	2	2	9	72.158	4	Aircraft1_90%_12.jpg	0	0.9	72.158	75.893	74.186	0
49	2	2	10	76.193	4	Aircraft2_90%_32.jpg	1	0.9	76.193	79.929	78.832	1
49	2	2	11	80.239	4	Aircraft2_90%_48.jpg	1	0.9	80.239	83.974	83.46	1
49	2	2	12	84.275	4	Aircraft1_90%_19.jpg	0	0.9	84.275	88.004	86.934	0
49	2	2	13	88.291	4	Aircraft1_90%_33.jpg	0	0.9	88.291	92.025	90.435	0
49	2	2	14	92.313	4	rest.jpg	n/a	n/a	92.313	96.049	96.313	n/a
49	2	2	15	96.296	4	rest.jpg	n/a	n/a	96.296	100.026	100.296	n/a
49	2	2	16	100.261	4	rest.jpg	n/a	n/a	100.261	103.992	104.261	n/a
49	2	3	17	104.316	4	Aircraft2_70%_33.jpg	1	0.75	104.316	108.058	105.895	1
49	2	3	18	108.368	4	Aircraft2_70%_38.jpg	1	0.75	108.368	112.099	109.691	1
49	2	3	19	112.372	4	Aircraft1_70%_30.jpg	0	0.75	112.372	116.101	115.644	0
49	2	3	20	116.413	4	Aircraft1_70%_41.jpg	0	0.75	116.413	120.149	119.7	0
49	2	3	21	120.425	4	Aircraft1_70%_18.jpg	0	0.75	120.425	124.154	121.424	0
49	2	3	22	124.437	4	rest.jpg	n/a	n/a	124.437	128.165	128.437	n/a
49	2	3	23	128.396	4	rest.jpg	n/a	n/a	128.396	132.131	132.396	n/a
49	2	3	24	132.364	4	rest.jpg	n/a	n/a	132.364	136.098	136.364	n/a
49	2	4	25	136.404	4	Aircraft2_10%_24.jpg	1	0.1	136.404	140.139	137.429	1
49	2	4	26	140.451	4	Aircraft2_10%_2.jpg	1	0.1	140.451	144.182	141.581	1
49	2	4	27	144.514	4	Aircraft2_10%_43.jpg	1	0.1	144.514	148.243	145.707	1
49	2	4	28	148.522	4	Aircraft2_10%_46.jpg	1	0.1	148.522	152.253	149.458	1
49	2	4	29	152.558	4	Aircraft1_10%_42.jpg	0	0.1	152.558	156.289	153.455	0
49	2	4	30	156.559	4	rest.jpg	n/a	n/a	156.559	160.288	160.559	n/a
49	2	4	31	160.537	4	rest.jpg	n/a	n/a	160.537	164.273	164.537	n/a
49	2	4	32	164.534	4	rest.jpg	n/a	n/a	164.534	168.27	168.534	n/a
49	2	5	33	168.548	4	Aircraft2_90%_9.jpg	1	0.9	168.548	172.282	170.622	1
49	2	5	34	172.597	4	Aircraft2_90%_6.jpg	1	0.9	172.597	176.328	174.555	1
49	2	5	35	176.736	4	Aircraft1_90%_23.jpg	0	0.9	176.736	180.472	178.729	0
49	2	5	36	180.74	4	Aircraft1_90%_21.jpg	0	0.9	180.74	184.477	182.688	0
49	2	5	37	184.785	4	Aircraft2_90%_36.jpg	1	0.9	184.785	188.515	186.854	1
49	2	5	38	188.785	4	rest.jpg	n/a	n/a	188.785	192.517	192.785	n/a
49	2	5	39	192.766	4	rest.jpg	n/a	n/a	192.766	196.502	196.766	n/a
49	2	5	40	196.747	4	rest.jpg	n/a	n/a	196.747	200.475	200.747	n/a
49	2	6	41	200.768	4	Aircraft2_70%_31.jpg	1	0.75	200.768	204.497	202.13	1
49	2	6	42	204.812	4	Aircraft1_70%_4.jpg	0	0.75	204.812	208.541	206.763	0
49	2	6	43	208.839	4	Aircraft2_70%_20.jpg	1	0.75	208.839	212.571	212.839	1
49	2	6	44	212.846	4	Aircraft1_70%_7.jpg	0	0.75	212.846	216.584	213.972	0
49	2	6	45	216.873	4	Aircraft1_70%_8.jpg	0	0.75	216.873	220.602	219.309	0
49	2	6	46	220.895	4	rest.jpg	n/a	n/a	220.895	224.63	224.895	n/a
49	2	6	47	224.864	4	rest.jpg	n/a	n/a	224.864	228.595	228.864	n/a
49	2	6	48	228.829	4	rest.jpg	n/a	n/a	228.829	232.563	232.829	n/a
49	2	7	49	232.84	4	Aircraft2_10%_31.jpg	1	0.1	232.84	236.568	233.888	1
49	2	7	50	236.887	4	Aircraft1_10%_4.jpg	0	0.1	236.887	240.618	237.634	0
49	2	7	51	240.889	4	Aircraft2_10%_20.jpg	1	0.1	240.889	244.621	241.613	1
49	2	7	52	244.93	4	Aircraft1_10%_7.jpg	0	0.1	244.93	248.659	246.733	0
49	2	7	53	248.935	4	Aircraft1_10%_8.jpg	0	0.1	248.935	252.671	249.969	0
49	2	7	54	252.961	4	rest.jpg	n/a	n/a	252.961	256.692	256.961	n/a
49	2	7	55	256.926	4	rest.jpg	n/a	n/a	256.926	260.66	260.926	n/a
49	2	7	56	260.91	4	rest.jpg	n/a	n/a	260.91	264.639	264.91	n/a
49	2	8	57	264.907	4	Aircraft2_90%_41.jpg	1	0.9	264.907	268.642	266.536	1
49	2	8	58	268.952	4	Aircraft1_90%_22.jpg	0	0.9	268.952	272.687	270.939	0
49	2	8	59	272.953	4	Aircraft1_90%_44.jpg	0	0.9	272.953	276.682	275.513	0
49	2	8	60	276.97	4	Aircraft1_90%_1.jpg	0	0.9	276.97	280.705	278.861	0
49	2	8	61	281.008	4	Aircraft2_90%_37.jpg	1	0.9	281.008	284.737	282.052	1
49	2	8	62	285.007	4	rest.jpg	n/a	n/a	285.007	288.741	289.007	n/a
49	2	8	63	288.975	4	rest.jpg	n/a	n/a	288.975	292.705	292.975	n/a
49	2	8	64	292.939	4	rest.jpg	n/a	n/a	292.939	296.668	296.939	n/a
49	2	9	65	296.974	4	Aircraft2_70%_41.jpg	1	0.75	296.974	300.709	298.805	1
49	2	9	66	300.983	4	Aircraft1_70%_22.jpg	0	0.75	300.983	304.717	304.222	0
49	2	9	67	305.011	4	Aircraft1_70%_44.jpg	0	0.75	305.011	308.743	305.99	0
49	2	9	68	309.045	4	Aircraft1_70%_1.jpg	0	0.75	309.045	312.774	309.759	0
49	2	9	69	313.081	4	Aircraft2_70%_37.jpg	1	0.75	313.081	316.816	317.081	1
49	2	9	70	317.09	4	rest.jpg	n/a	n/a	317.09	320.819	321.09	n/a
49	2	9	71	321.059	4	rest.jpg	n/a	n/a	321.059	324.793	325.059	n/a
49	2	9	72	325.043	4	rest.jpg	n/a	n/a	325.043	328.775	329.043	n/a
49	2	10	73	329.083	4	Aircraft2_10%_33.jpg	1	0.1	329.083	332.812	331.258	1
49	2	10	74	333.125	4	Aircraft2_10%_38.jpg	1	0.1	333.125	336.855	334.255	1
49	2	10	75	337.16	4	Aircraft1_10%_30.jpg	0	0.1	337.16	340.89	337.964	0
49	2	10	76	341.221	4	Aircraft1_10%_41.jpg	0	0.1	341.221	344.956	343.454	0
49	2	10	77	345.228	4	Aircraft1_10%_18.jpg	0	0.1	345.228	348.96	345.886	0
49	2	10	78	349.229	4	rest.jpg	n/a	n/a	349.229	352.961	353.229	n/a
49	2	10	79	353.21	4	rest.jpg	n/a	n/a	353.21	356.946	357.21	n/a
49	2	10	80	357.18	4	rest.jpg	n/a	n/a	357.18	360.915	361.18	n/a
49	2	11	81	361.2	4	Aircraft2_90%_23.jpg	1	0.9	361.2	364.935	364.055	1
49	2	11	82	365.255	4	Aircraft1_90%_28.jpg	0	0.9	365.255	368.989	366.399	0
49	2	11	83	369.295	4	Aircraft2_90%_13.jpg	1	0.9	369.295	373.029	370.62	1
49	2	11	84	373.348	4	Aircraft1_90%_45.jpg	0	0.9	373.348	377.079	376.198	0
49	2	11	85	377.345	4	Aircraft1_90%_37.jpg	0	0.9	377.345	381.074	379.671	0
49	2	11	86	381.361	4	rest.jpg	n/a	n/a	381.361	385.097	385.361	n/a
49	2	11	87	385.346	4	rest.jpg	n/a	n/a	385.346	389.082	389.346	n/a
49	2	11	88	389.326	4	rest.jpg	n/a	n/a	389.326	393.057	393.326	n/a
49	2	12	89	393.372	4	Aircraft1_70%_2.jpg	0	0.75	393.372	397.108	396.003	0
49	2	12	90	397.432	4	Aircraft1_70%_39.jpg	0	0.75	397.432	401.161	400.029	0
49	2	12	91	401.456	4	Aircraft2_70%_26.jpg	1	0.75	401.456	405.187	404.659	1
49	2	12	92	405.51	4	Aircraft1_70%_15.jpg	0	0.75	405.51	409.241	406.531	0
49	2	12	93	409.565	4	Aircraft2_70%_16.jpg	1	0.75	409.565	413.294	410.607	1
49	2	12	94	413.584	4	rest.jpg	n/a	n/a	413.584	417.313	417.584	n/a
49	2	12	95	417.56	4	rest.jpg	n/a	n/a	417.56	421.289	421.56	n/a
49	2	12	96	421.531	4	rest.jpg	n/a	n/a	421.531	425.26	425.531	n/a
49	2	13	97	425.538	4	Aircraft2_10%_4.jpg	1	0.1	425.538	429.274	426.459	1
49	2	13	98	429.595	4	Aircraft1_10%_43.jpg	0	0.1	429.595	433.325	430.26	0
49	2	13	99	433.648	4	Aircraft1_10%_9.jpg	0	0.1	433.648	437.379	434.206	0
49	2	13	100	437.684	4	Aircraft1_10%_11.jpg	0	0.1	437.684	441.418	438.588	0
49	2	13	101	441.712	4	Aircraft1_10%_50.jpg	0	0.1	441.712	445.443	442.768	0
49	2	13	102	445.715	4	rest.jpg	n/a	n/a	445.715	449.447	449.715	n/a
49	2	13	103	449.695	4	rest.jpg	n/a	n/a	449.695	453.426	453.695	n/a
49	2	13	104	453.673	4	rest.jpg	n/a	n/a	453.673	457.408	457.673	n/a
49	2	14	105	457.676	4	Aircraft1_90%_38.jpg	0	0.9	457.676	461.41	459.142	0
49	2	14	106	461.731	4	Aircraft2_90%_21.jpg	1	0.9	461.731	465.468	463.988	1
49	2	14	107	465.781	4	Aircraft1_90%_16.jpg	0	0.9	465.781	469.51	467.675	0
49	2	14	108	469.828	4	Aircraft1_90%_46.jpg	0	0.9	469.828	473.559	471.921	0
49	2	14	109	473.839	4	Aircraft2_90%_40.jpg	1	0.9	473.839	477.572	474.887	1
49	2	14	110	477.859	4	rest.jpg	n/a	n/a	477.859	481.59	481.859	n/a
49	2	14	111	481.841	4	rest.jpg	n/a	n/a	481.841	485.57	485.841	n/a
49	2	14	112	485.816	4	rest.jpg	n/a	n/a	485.816	489.545	489.816	n/a
49	2	15	113	489.813	4	Aircraft1_70%_36.jpg	0	0.75	489.813	493.548	492.063	0
49	2	15	114	493.861	4	Aircraft1_70%_35.jpg	0	0.75	493.861	497.592	496.204	0
49	2	15	115	497.9	4	Aircraft2_70%_3.jpg	1	0.75	497.9	501.629	500.786	1
49	2	15	116	501.956	4	Aircraft1_70%_5.jpg	0	0.75	501.956	505.688	504.088	0
49	2	15	117	506.063	4	Aircraft1_70%_48.jpg	0	0.75	506.063	509.792	507.431	0
49	2	15	118	510.064	4	rest.jpg	n/a	n/a	510.064	513.793	514.064	n/a
49	2	15	119	514.043	4	rest.jpg	n/a	n/a	514.043	517.773	518.043	n/a
49	2	15	120	518.008	4	rest.jpg	n/a	n/a	518.008	521.74	522.008	n/a
49	2	16	121	522.021	4	Aircraft2_10%_18.jpg	1	0.1	522.021	525.751	523.562	1
49	2	16	122	526.06	4	Aircraft1_10%_29.jpg	0	0.1	526.06	529.794	526.718	0
49	2	16	123	530.078	4	Aircraft2_10%_1.jpg	1	0.1	530.078	533.81	530.865	1
49	2	16	124	534.147	4	Aircraft1_10%_26.jpg	0	0.1	534.147	537.881	534.872	0
49	2	16	125	538.255	4	Aircraft2_10%_34.jpg	1	0.1	538.255	541.989	539.363	1
49	2	16	126	542.282	4	rest.jpg	n/a	n/a	542.282	546.012	546.282	n/a
49	2	16	127	546.246	4	rest.jpg	n/a	n/a	546.246	549.982	550.246	n/a
49	2	16	128	550.228	4	rest.jpg	n/a	n/a	550.228	553.961	554.228	n/a
49	2	17	129	554.266	4	Aircraft2_90%_30.jpg	1	0.9	554.266	557.994	556.994	1
49	2	17	130	558.293	4	Aircraft2_90%_27.jpg	1	0.9	558.293	562.027	560.219	1
49	2	17	131	562.322	4	Aircraft2_90%_50.jpg	1	0.9	562.322	566.053	564.913	1
49	2	17	132	566.361	4	Aircraft2_90%_29.jpg	1	0.9	566.361	570.096	568.902	1
49	2	17	133	570.418	4	Aircraft1_90%_6.jpg	0	0.9	570.418	574.153	573.442	0
49	2	17	134	574.466	4	rest.jpg	n/a	n/a	574.466	578.197	578.466	n/a
49	2	17	135	578.446	4	rest.jpg	n/a	n/a	578.446	582.175	582.446	n/a
49	2	17	136	582.412	4	rest.jpg	n/a	n/a	582.412	586.148	586.412	n/a
49	2	18	137	586.451	4	Aircraft2_70%_17.jpg	1	0.75	586.451	590.183	588.477	1
49	2	18	138	590.454	4	Aircraft2_70%_11.jpg	1	0.75	590.454	594.188	592.742	1
49	2	18	139	594.484	4	Aircraft1_70%_20.jpg	0	0.75	594.484	598.215	595.592	0
49	2	18	140	598.526	4	Aircraft2_70%_47.jpg	1	0.75	598.526	602.26	600.806	1
49	2	18	141	602.575	4	Aircraft2_70%_45.jpg	1	0.75	602.575	606.309	604.942	1
49	2	18	142	606.582	4	rest.jpg	n/a	n/a	606.582	610.311	610.582	n/a
49	2	18	143	610.545	4	rest.jpg	n/a	n/a	610.545	614.279	614.545	n/a
49	2	18	144	614.542	4	rest.jpg	n/a	n/a	614.542	618.271	618.542	n/a
49	2	19	145	618.548	4	Aircraft1_10%_32.jpg	0	0.1	618.548	622.284	619.579	0
49	2	19	146	622.599	4	Aircraft1_10%_49.jpg	0	0.1	622.599	626.334	623.838	0
49	2	19	147	626.648	4	Aircraft2_10%_22.jpg	1	0.1	626.648	630.379	627.776	1
49	2	19	148	630.684	4	Aircraft1_10%_34.jpg	0	0.1	630.684	634.413	631.738	0
49	2	19	149	634.745	4	Aircraft1_10%_14.jpg	0	0.1	634.745	638.474	635.68	0
49	2	19	150	638.76	4	rest.jpg	n/a	n/a	638.76	642.489	642.76	n/a
49	2	19	151	642.724	4	rest.jpg	n/a	n/a	642.724	646.456	646.724	n/a
49	2	19	152	646.703	4	rest.jpg	n/a	n/a	646.703	650.438	650.703	n/a
49	2	20	153	650.722	4	Aircraft1_90%_1.jpg	0	0.9	650.722	654.454	652.599	0
49	2	20	154	654.724	4	Aircraft1_90%_47.jpg	0	0.9	654.724	658.458	657.261	0
49	2	20	155	658.737	4	Aircraft1_90%_40.jpg	0	0.9	658.737	662.472	659.842	0
49	2	20	156	662.756	4	Aircraft1_90%_27.jpg	0	0.9	662.756	666.484	665.194	0
49	2	20	157	666.77	4	Aircraft2_90%_35.jpg	1	0.9	666.77	670.499	668.909	1
49	2	20	158	670.787	4	rest.jpg	n/a	n/a	670.787	674.525	674.787	n/a
49	2	20	159	674.757	4	rest.jpg	n/a	n/a	674.757	678.486	678.757	n/a
49	2	20	160	678.736	4	rest.jpg	n/a	n/a	678.736	682.467	682.736	n/a
49	2	21	161	682.774	4	Aircraft2_70%_23.jpg	1	0.75	682.774	686.509	684.164	1
49	2	21	162	686.806	4	Aircraft1_70%_28.jpg	0	0.75	686.806	690.542	687.715	0
49	2	21	163	690.832	4	Aircraft2_70%_13.jpg	1	0.75	690.832	694.561	692.683	1
49	2	21	164	694.866	4	Aircraft1_70%_45.jpg	0	0.75	694.866	698.598	697.999	0
49	2	21	165	698.907	4	Aircraft1_70%_37.jpg	0	0.75	698.907	702.635	699.786	0
49	2	21	166	702.908	4	rest.jpg	n/a	n/a	702.908	706.639	706.908	n/a
49	2	21	167	706.882	4	rest.jpg	n/a	n/a	706.882	710.612	710.882	n/a
49	2	21	168	710.859	4	rest.jpg	n/a	n/a	710.859	714.593	714.859	n/a
49	2	22	169	714.876	4	Aircraft1_10%_25.jpg	0	0.1	714.876	718.61	715.588	0
49	2	22	170	718.926	4	Aircraft2_10%_49.jpg	1	0.1	718.926	722.657	719.89	1
49	2	22	171	722.975	4	Aircraft2_10%_10.jpg	1	0.1	722.975	726.712	724.362	1
49	2	22	172	726.99	4	Aircraft2_10%_12.jpg	1	0.1	726.99	730.726	728.021	1
49	2	22	173	731.039	4	Aircraft2_10%_7.jpg	1	0.1	731.039	734.771	732.468	1
49	2	22	174	735.042	4	rest.jpg	n/a	n/a	735.042	738.77	739.042	n/a
49	2	22	175	739.012	4	rest.jpg	n/a	n/a	739.012	742.744	743.012	n/a
49	2	22	176	742.976	4	rest.jpg	n/a	n/a	742.976	746.705	746.976	n/a
49	2	23	177	746.978	4	Aircraft2_90%_17.jpg	1	0.9	746.978	750.715	750.434	1
49	2	23	178	750.992	4	Aircraft2_90%_11.jpg	1	0.9	750.992	754.726	753.472	1
49	2	23	179	755.273	4	Aircraft1_90%_20.jpg	0	0.9	755.273	759.004	757.397	0
49	2	23	180	759.307	4	Aircraft2_90%_47.jpg	1	0.9	759.307	763.039	760.216	1
49	2	23	181	763.368	4	Aircraft2_90%_45.jpg	1	0.9	763.368	767.097	764.495	1
49	2	23	182	767.368	4	rest.jpg	n/a	n/a	767.368	771.103	771.368	n/a
49	2	23	183	771.337	4	rest.jpg	n/a	n/a	771.337	775.068	775.337	n/a
49	2	23	184	775.31	4	rest.jpg	n/a	n/a	775.31	779.039	779.31	n/a
49	2	24	185	779.361	4	Aircraft1_70%_38.jpg	0	0.75	779.361	783.09	780.818	0
49	2	24	186	783.414	4	Aircraft2_70%_21.jpg	1	0.75	783.414	787.145	784.402	1
49	2	24	187	787.439	4	Aircraft1_70%_16.jpg	0	0.75	787.439	791.17	788.246	0
49	2	24	188	791.456	4	Aircraft1_70%_46.jpg	0	0.75	791.456	795.188	793.635	0
49	2	24	189	795.482	4	Aircraft2_70%_40.jpg	1	0.75	795.482	799.216	797.394	1
49	2	24	190	799.487	4	rest.jpg	n/a	n/a	799.487	803.218	803.487	n/a
49	2	24	191	803.468	4	rest.jpg	n/a	n/a	803.468	807.197	807.468	n/a
49	2	24	192	807.431	4	rest.jpg	n/a	n/a	807.431	811.159	811.431	n/a
49	2	25	193	811.486	4	Aircraft1_10%_3.jpg	0	0.1	811.486	815.215	812.819	0
49	2	25	194	815.497	4	Aircraft2_10%_28.jpg	1	0.1	815.497	819.226	816.458	1
49	2	25	195	819.512	4	Aircraft1_10%_24.jpg	0	0.1	819.512	823.242	821.104	0
49	2	25	196	823.528	4	Aircraft2_10%_39.jpg	1	0.1	823.528	827.263	824.508	1
49	2	25	197	827.568	4	Aircraft2_10%_8.jpg	1	0.1	827.568	831.299	828.603	1
49	2	25	198	831.586	4	rest.jpg	n/a	n/a	831.586	835.32	835.586	n/a
49	2	25	199	835.571	4	rest.jpg	n/a	n/a	835.571	839.307	839.571	n/a
49	2	25	200	839.541	4	rest.jpg	n/a	n/a	839.541	843.277	843.541	n/a
49	2	26	201	843.588	4	Aircraft1_90%_36.jpg	0	0.9	843.588	847.319	845.792	0
49	2	26	202	847.639	4	Aircraft1_90%_35.jpg	0	0.9	847.639	851.374	850.578	0
49	2	26	203	851.64	4	Aircraft2_90%_3.jpg	1	0.9	851.64	855.374	854.356	1
49	2	26	204	855.685	4	Aircraft1_90%_5.jpg	0	0.9	855.685	859.414	858.35	0
49	2	26	205	859.696	4	Aircraft1_90%_48.jpg	0	0.9	859.696	863.427	862.377	0
49	2	26	206	863.697	4	rest.jpg	n/a	n/a	863.697	867.427	867.697	n/a
49	2	26	207	867.674	4	rest.jpg	n/a	n/a	867.674	871.406	871.674	n/a
49	2	26	208	871.64	4	rest.jpg	n/a	n/a	871.64	875.378	875.64	n/a
49	2	27	209	875.673	4	Aircraft2_70%_30.jpg	1	0.75	875.673	879.408	877.554	1
49	2	27	210	879.718	4	Aircraft2_70%_27.jpg	1	0.75	879.718	883.446	881.026	1
49	2	27	211	883.752	4	Aircraft2_70%_50.jpg	1	0.75	883.752	887.484	886.819	1
49	2	27	212	887.774	4	Aircraft2_70%_29.jpg	1	0.75	887.774	891.509	888.756	1
49	2	27	213	891.826	4	Aircraft1_70%_6.jpg	0	0.75	891.826	895.561	892.847	0
49	2	27	214	895.831	4	rest.jpg	n/a	n/a	895.831	899.567	899.831	n/a
49	2	27	215	899.817	4	rest.jpg	n/a	n/a	899.817	903.551	903.817	n/a
49	2	27	216	903.796	4	rest.jpg	n/a	n/a	903.796	907.525	907.796	n/a
49	2	28	217	907.857	4	Aircraft2_10%_14.jpg	1	0.1	907.857	911.588	908.831	1
49	2	28	218	911.91	4	Aircraft2_10%_5.jpg	1	0.1	911.91	915.639	912.935	1
49	2	28	219	915.952	4	Aircraft2_10%_15.jpg	1	0.1	915.952	919.685	916.64	1
49	2	28	220	919.993	4	Aircraft2_10%_19.jpg	1	0.1	919.993	923.726	921.341	1
49	2	28	221	924.016	4	Aircraft1_10%_31.jpg	0	0.1	924.016	927.746	924.877	0
49	2	28	222	928.032	4	rest.jpg	n/a	n/a	928.032	931.763	932.032	n/a
49	2	28	223	932.012	4	rest.jpg	n/a	n/a	932.012	935.748	936.012	n/a
49	2	28	224	935.996	4	rest.jpg	n/a	n/a	935.996	939.737	939.996	n/a
49	2	29	225	940.017	4	Aircraft1_90%_2.jpg	0	0.9	940.017	943.747	942.167	0
49	2	29	226	944.018	4	Aircraft1_90%_39.jpg	0	0.9	944.018	947.751	945.124	0
49	2	29	227	948.073	4	Aircraft2_90%_26.jpg	1	0.9	948.073	951.805	949.903	1
49	2	29	228	952.091	4	Aircraft1_90%_15.jpg	0	0.9	952.091	955.825	955.107	0
49	2	29	229	956.141	4	Aircraft2_90%_16.jpg	1	0.9	956.141	959.87	957.267	1
49	2	29	230	960.161	4	rest.jpg	n/a	n/a	960.161	963.896	964.161	n/a
49	2	29	231	964.151	4	rest.jpg	n/a	n/a	964.151	967.88	968.151	n/a
49	2	29	232	968.134	4	rest.jpg	n/a	n/a	968.134	971.868	972.134	n/a
49	2	30	233	972.16	4	Aircraft1_70%_1.jpg	0	0.75	972.16	975.894	973.683	0
49	2	30	234	976.186	4	Aircraft1_70%_47.jpg	0	0.75	976.186	979.915	977.367	0
49	2	30	235	980.243	4	Aircraft1_70%_40.jpg	0	0.75	980.243	983.973	981.069	0
49	2	30	236	984.267	4	Aircraft1_70%_27.jpg	0	0.75	984.267	988.007	985.783	0
49	2	30	237	988.313	4	Aircraft2_70%_35.jpg	1	0.75	988.313	992.049	990.156	1
49	2	30	238	992.318	4	rest.jpg	n/a	n/a	992.318	996.052	996.318	n/a
49	2	30	239	996.301	4	rest.jpg	n/a	n/a	996.301	1000.032	1000.301	n/a
49	2	30	240	1000.275	4	rest.jpg	n/a	n/a	1000.275	1004.006	1004.275	n/a
