sub	run	block	trail	oneset	duration	stim_file	stim_lable	level of occlusion	stim_started	stim_stopped	key_time	key_fix
52	2	1	1	40	4	Aircraft1_10%_17.jpg	0	0.1	40	43.732	40.889	0
52	2	1	2	44.003	4	Aircraft2_10%_42.jpg	1	0.1	44.003	47.735	44.588	1
52	2	1	3	48.037	4	Aircraft2_10%_44.jpg	1	0.1	48.037	51.769	48.848	1
52	2	1	4	52.084	4	Aircraft1_10%_10.jpg	0	0.1	52.084	55.818	53.15	0
52	2	1	5	56.132	4	Aircraft2_10%_25.jpg	1	0.1	56.132	59.863	56.731	1
52	2	1	6	60.129	4	rest.jpg	n/a	n/a	60.129	63.858	64.129	n/a
52	2	1	7	64.112	4	rest.jpg	n/a	n/a	64.112	67.841	68.112	n/a
52	2	1	8	68.076	4	rest.jpg	n/a	n/a	68.076	71.808	72.076	n/a
52	2	2	9	72.1	4	Aircraft1_90%_12.jpg	0	0.9	72.1	75.829	74.444	0
52	2	2	10	76.127	4	Aircraft2_90%_32.jpg	1	0.9	76.127	79.859	78.344	1
52	2	2	11	80.141	4	Aircraft2_90%_48.jpg	1	0.9	80.141	83.876	81.039	1
52	2	2	12	84.182	4	Aircraft1_90%_19.jpg	0	0.9	84.182	87.917	85.277	0
52	2	2	13	88.234	4	Aircraft1_90%_33.jpg	0	0.9	88.234	91.969	90.397	0
52	2	2	14	92.257	4	rest.jpg	n/a	n/a	92.257	95.986	96.257	n/a
52	2	2	15	96.237	4	rest.jpg	n/a	n/a	96.237	99.973	100.237	n/a
52	2	2	16	100.225	4	rest.jpg	n/a	n/a	100.225	103.961	104.225	n/a
52	2	3	17	104.285	4	Aircraft2_70%_33.jpg	1	0.75	104.285	108.023	106.169	1
52	2	3	18	108.333	4	Aircraft2_70%_38.jpg	1	0.75	108.333	112.068	109.261	1
52	2	3	19	112.37	4	Aircraft1_70%_30.jpg	0	0.75	112.37	116.104	113.787	0
52	2	3	20	116.396	4	Aircraft1_70%_41.jpg	0	0.75	116.396	120.126	118.389	0
52	2	3	21	120.43	4	Aircraft1_70%_18.jpg	0	0.75	120.43	124.165	122.109	0
52	2	3	22	124.435	4	rest.jpg	n/a	n/a	124.435	128.167	128.435	n/a
52	2	3	23	128.399	4	rest.jpg	n/a	n/a	128.399	132.132	132.399	n/a
52	2	3	24	132.366	4	rest.jpg	n/a	n/a	132.366	136.101	136.366	n/a
52	2	4	25	136.426	4	Aircraft2_10%_24.jpg	1	0.1	136.426	140.161	137.413	1
52	2	4	26	140.449	4	Aircraft2_10%_2.jpg	1	0.1	140.449	144.186	141.222	1
52	2	4	27	144.493	4	Aircraft2_10%_43.jpg	1	0.1	144.493	148.224	145.979	1
52	2	4	28	148.539	4	Aircraft2_10%_46.jpg	1	0.1	148.539	152.268	149.082	1
52	2	4	29	152.571	4	Aircraft1_10%_42.jpg	0	0.1	152.571	156.304	153.248	0
52	2	4	30	156.572	4	rest.jpg	n/a	n/a	156.572	160.301	160.572	n/a
52	2	4	31	160.533	4	rest.jpg	n/a	n/a	160.533	164.268	164.533	n/a
52	2	4	32	164.502	4	rest.jpg	n/a	n/a	164.502	168.237	168.502	n/a
52	2	5	33	168.544	4	Aircraft2_90%_9.jpg	1	0.9	168.544	172.275	171.084	1
52	2	5	34	172.589	4	Aircraft2_90%_6.jpg	1	0.9	172.589	176.32	174.213	1
52	2	5	35	176.604	4	Aircraft1_90%_23.jpg	0	0.9	176.604	180.339	179.815	0
52	2	5	36	180.636	4	Aircraft1_90%_21.jpg	0	0.9	180.636	184.365	183.184	0
52	2	5	37	184.644	4	Aircraft2_90%_36.jpg	1	0.9	184.644	188.376	185.54	1
52	2	5	38	188.664	4	rest.jpg	n/a	n/a	188.664	192.394	192.664	n/a
52	2	5	39	192.641	4	rest.jpg	n/a	n/a	192.641	196.373	196.641	n/a
52	2	5	40	196.606	4	rest.jpg	n/a	n/a	196.606	200.337	200.606	n/a
52	2	6	41	200.648	4	Aircraft2_70%_31.jpg	1	0.75	200.648	204.378	202.435	1
52	2	6	42	204.682	4	Aircraft1_70%_4.jpg	0	0.75	204.682	208.411	206.709	0
52	2	6	43	208.709	4	Aircraft2_70%_20.jpg	1	0.75	208.709	212.441	209.648	1
52	2	6	44	212.745	4	Aircraft1_70%_7.jpg	0	0.75	212.745	216.48	215.916	0
52	2	6	45	216.769	4	Aircraft1_70%_8.jpg	0	0.75	216.769	220.501	217.896	0
52	2	6	46	220.79	4	rest.jpg	n/a	n/a	220.79	224.525	224.79	n/a
52	2	6	47	224.759	4	rest.jpg	n/a	n/a	224.759	228.492	228.759	n/a
52	2	6	48	228.74	4	rest.jpg	n/a	n/a	228.74	232.472	232.74	n/a
52	2	7	49	232.8	4	Aircraft2_10%_31.jpg	1	0.1	232.8	236.535	233.702	1
52	2	7	50	236.852	4	Aircraft1_10%_4.jpg	0	0.1	236.852	240.581	237.781	0
52	2	7	51	240.851	4	Aircraft2_10%_20.jpg	1	0.1	240.851	244.582	241.634	1
52	2	7	52	244.894	4	Aircraft1_10%_7.jpg	0	0.1	244.894	248.629	245.622	0
52	2	7	53	248.92	4	Aircraft1_10%_8.jpg	0	0.1	248.92	252.651	249.713	0
52	2	7	54	252.923	4	rest.jpg	n/a	n/a	252.923	256.654	256.923	n/a
52	2	7	55	256.903	4	rest.jpg	n/a	n/a	256.903	260.632	260.903	n/a
52	2	7	56	260.866	4	rest.jpg	n/a	n/a	260.866	264.602	264.866	n/a
52	2	8	57	264.907	4	Aircraft2_90%_41.jpg	1	0.9	264.907	268.643	266.712	1
52	2	8	58	268.925	4	Aircraft1_90%_22.jpg	0	0.9	268.925	272.656	272.925	0
52	2	8	59	272.961	4	Aircraft1_90%_44.jpg	0	0.9	272.961	276.696	274.136	0
52	2	8	60	276.982	4	Aircraft1_90%_1.jpg	0	0.9	276.982	280.717	278.752	0
52	2	8	61	281	4	Aircraft2_90%_37.jpg	1	0.9	281	284.734	281.841	1
52	2	8	62	285.024	4	rest.jpg	n/a	n/a	285.024	288.761	289.024	n/a
52	2	8	63	289.01	4	rest.jpg	n/a	n/a	289.01	292.741	293.01	n/a
52	2	8	64	292.99	4	rest.jpg	n/a	n/a	292.99	296.725	296.99	n/a
52	2	9	65	297.01	4	Aircraft2_70%_41.jpg	1	0.75	297.01	300.743	298.109	1
52	2	9	66	301.049	4	Aircraft1_70%_22.jpg	0	0.75	301.049	304.783	301.878	0
52	2	9	67	305.059	4	Aircraft1_70%_44.jpg	0	0.75	305.059	308.795	306.232	0
52	2	9	68	309.084	4	Aircraft1_70%_1.jpg	0	0.75	309.084	312.82	310.233	0
52	2	9	69	313.094	4	Aircraft2_70%_37.jpg	1	0.75	313.094	316.825	314.135	1
52	2	9	70	317.106	4	rest.jpg	n/a	n/a	317.106	320.843	321.106	n/a
52	2	9	71	321.077	4	rest.jpg	n/a	n/a	321.077	324.806	325.077	n/a
52	2	9	72	325.058	4	rest.jpg	n/a	n/a	325.058	328.793	329.058	n/a
52	2	10	73	329.068	4	Aircraft2_10%_33.jpg	1	0.1	329.068	332.802	331.103	1
52	2	10	74	333.077	4	Aircraft2_10%_38.jpg	1	0.1	333.077	336.805	333.666	1
52	2	10	75	337.134	4	Aircraft1_10%_30.jpg	0	0.1	337.134	340.864	337.812	0
52	2	10	76	341.168	4	Aircraft1_10%_41.jpg	0	0.1	341.168	344.904	341.894	0
52	2	10	77	345.207	4	Aircraft1_10%_18.jpg	0	0.1	345.207	348.941	345.961	0
52	2	10	78	349.211	4	rest.jpg	n/a	n/a	349.211	352.947	353.211	n/a
52	2	10	79	353.197	4	rest.jpg	n/a	n/a	353.197	356.928	357.197	n/a
52	2	10	80	357.174	4	rest.jpg	n/a	n/a	357.174	360.91	361.174	n/a
52	2	11	81	361.188	4	Aircraft2_90%_23.jpg	1	0.9	361.188	364.92	364.161	1
52	2	11	82	365.236	4	Aircraft1_90%_28.jpg	0	0.9	365.236	368.965	366.207	0
52	2	11	83	369.233	4	Aircraft2_90%_13.jpg	1	0.9	369.233	372.967	370.581	1
52	2	11	84	373.281	4	Aircraft1_90%_45.jpg	0	0.9	373.281	377.015	374.23	0
52	2	11	85	377.329	4	Aircraft1_90%_37.jpg	0	0.9	377.329	381.058	378.659	0
52	2	11	86	381.345	4	rest.jpg	n/a	n/a	381.345	385.08	385.345	n/a
52	2	11	87	385.314	4	rest.jpg	n/a	n/a	385.314	389.043	389.314	n/a
52	2	11	88	389.277	4	rest.jpg	n/a	n/a	389.277	393.006	393.277	n/a
52	2	12	89	393.293	4	Aircraft1_70%_2.jpg	0	0.75	393.293	397.029	396.314	0
52	2	12	90	397.303	4	Aircraft1_70%_39.jpg	0	0.75	397.303	401.038	398.381	0
52	2	12	91	401.344	4	Aircraft2_70%_26.jpg	1	0.75	401.344	405.075	402.808	1
52	2	12	92	405.394	4	Aircraft1_70%_15.jpg	0	0.75	405.394	409.123	408.154	0
52	2	12	93	409.404	4	Aircraft2_70%_16.jpg	1	0.75	409.404	413.133	410.442	1
52	2	12	94	413.403	4	rest.jpg	n/a	n/a	413.403	417.132	417.403	n/a
52	2	12	95	417.379	4	rest.jpg	n/a	n/a	417.379	421.108	421.379	n/a
52	2	12	96	421.357	4	rest.jpg	n/a	n/a	421.357	425.09	425.357	n/a
52	2	13	97	425.383	4	Aircraft2_10%_4.jpg	1	0.1	425.383	429.119	426.285	1
52	2	13	98	429.41	4	Aircraft1_10%_43.jpg	0	0.1	429.41	433.139	430.119	0
52	2	13	99	433.424	4	Aircraft1_10%_9.jpg	0	0.1	433.424	437.16	434.246	0
52	2	13	100	437.493	4	Aircraft1_10%_11.jpg	0	0.1	437.493	441.223	438.365	0
52	2	13	101	441.54	4	Aircraft1_10%_50.jpg	0	0.1	441.54	445.273	442.312	0
52	2	13	102	445.541	4	rest.jpg	n/a	n/a	445.541	449.275	449.541	n/a
52	2	13	103	449.509	4	rest.jpg	n/a	n/a	449.509	453.239	453.509	n/a
52	2	13	104	453.488	4	rest.jpg	n/a	n/a	453.488	457.219	457.488	n/a
52	2	14	105	457.489	4	Aircraft1_90%_38.jpg	0	0.9	457.489	461.226	458.373	0
52	2	14	106	461.513	4	Aircraft2_90%_21.jpg	1	0.9	461.513	465.248	464.13	1
52	2	14	107	465.526	4	Aircraft1_90%_16.jpg	0	0.9	465.526	469.261	466.926	0
52	2	14	108	469.58	4	Aircraft1_90%_46.jpg	0	0.9	469.58	473.309	471.6	0
52	2	14	109	473.614	4	Aircraft2_90%_40.jpg	1	0.9	473.614	477.348	476.279	1
52	2	14	110	477.632	4	rest.jpg	n/a	n/a	477.632	481.369	481.632	n/a
52	2	14	111	481.602	4	rest.jpg	n/a	n/a	481.602	485.338	485.602	n/a
52	2	14	112	485.588	4	rest.jpg	n/a	n/a	485.588	489.319	489.588	n/a
52	2	15	113	489.622	4	Aircraft1_70%_36.jpg	0	0.75	489.622	493.353	491.125	0
52	2	15	114	493.657	4	Aircraft1_70%_35.jpg	0	0.75	493.657	497.391	496.565	0
52	2	15	115	497.694	4	Aircraft2_70%_3.jpg	1	0.75	497.694	501.429	498.57	1
52	2	15	116	501.745	4	Aircraft1_70%_5.jpg	0	0.75	501.745	505.474	503.219	0
52	2	15	117	505.768	4	Aircraft1_70%_48.jpg	0	0.75	505.768	509.505	507.93	0
52	2	15	118	509.788	4	rest.jpg	n/a	n/a	509.788	513.522	513.788	n/a
52	2	15	119	513.755	4	rest.jpg	n/a	n/a	513.755	517.487	517.755	n/a
52	2	15	120	517.719	4	rest.jpg	n/a	n/a	517.719	521.454	521.719	n/a
52	2	16	121	521.734	4	Aircraft2_10%_18.jpg	1	0.1	521.734	525.47	522.617	1
52	2	16	122	525.776	4	Aircraft1_10%_29.jpg	0	0.1	525.776	529.507	526.471	0
52	2	16	123	529.787	4	Aircraft2_10%_1.jpg	1	0.1	529.787	533.518	530.488	1
52	2	16	124	533.801	4	Aircraft1_10%_26.jpg	0	0.1	533.801	537.533	534.424	0
52	2	16	125	537.842	4	Aircraft2_10%_34.jpg	1	0.1	537.842	541.578	538.606	1
52	2	16	126	541.862	4	rest.jpg	n/a	n/a	541.862	545.594	545.862	n/a
52	2	16	127	545.842	4	rest.jpg	n/a	n/a	545.842	549.571	549.842	n/a
52	2	16	128	549.821	4	rest.jpg	n/a	n/a	549.821	553.55	553.821	n/a
52	2	17	129	553.882	4	Aircraft2_90%_30.jpg	1	0.9	553.882	557.612	555.975	1
52	2	17	130	557.906	4	Aircraft2_90%_27.jpg	1	0.9	557.906	561.641	558.836	1
52	2	17	131	561.944	4	Aircraft2_90%_50.jpg	1	0.9	561.944	565.676	564.019	1
52	2	17	132	565.943	4	Aircraft2_90%_29.jpg	1	0.9	565.943	569.681	567.997	1
52	2	17	133	569.955	4	Aircraft1_90%_6.jpg	0	0.9	569.955	573.686	572.801	0
52	2	17	134	573.976	4	rest.jpg	n/a	n/a	573.976	577.708	577.976	n/a
52	2	17	135	577.957	4	rest.jpg	n/a	n/a	577.957	581.689	581.957	n/a
52	2	17	136	581.933	4	rest.jpg	n/a	n/a	581.933	585.67	585.933	n/a
52	2	18	137	585.945	4	Aircraft2_70%_17.jpg	1	0.75	585.945	589.681	586.885	1
52	2	18	138	589.965	4	Aircraft2_70%_11.jpg	1	0.75	589.965	593.699	592.363	1
52	2	18	139	593.996	4	Aircraft1_70%_20.jpg	0	0.75	593.996	597.732	595.192	0
52	2	18	140	598.005	4	Aircraft2_70%_47.jpg	1	0.75	598.005	601.744	599.486	1
52	2	18	141	602.05	4	Aircraft2_70%_45.jpg	1	0.75	602.05	605.779	603.485	1
52	2	18	142	606.057	4	rest.jpg	n/a	n/a	606.057	609.791	610.057	n/a
52	2	18	143	610.037	4	rest.jpg	n/a	n/a	610.037	613.772	614.037	n/a
52	2	18	144	614.021	4	rest.jpg	n/a	n/a	614.021	617.757	618.021	n/a
52	2	19	145	618.035	4	Aircraft1_10%_32.jpg	0	0.1	618.035	621.767	618.844	0
52	2	19	146	622.083	4	Aircraft1_10%_49.jpg	0	0.1	622.083	625.818	622.797	0
52	2	19	147	626.131	4	Aircraft2_10%_22.jpg	1	0.1	626.131	629.862	626.869	1
52	2	19	148	630.135	4	Aircraft1_10%_34.jpg	0	0.1	630.135	633.864	630.809	0
52	2	19	149	634.154	4	Aircraft1_10%_14.jpg	0	0.1	634.154	637.886	634.808	0
52	2	19	150	638.179	4	rest.jpg	n/a	n/a	638.179	641.914	642.179	n/a
52	2	19	151	642.164	4	rest.jpg	n/a	n/a	642.164	645.899	646.164	n/a
52	2	19	152	646.151	4	rest.jpg	n/a	n/a	646.151	649.887	650.151	n/a
52	2	20	153	650.174	4	Aircraft1_90%_1.jpg	0	0.9	650.174	653.91	652.771	0
52	2	20	154	654.228	4	Aircraft1_90%_47.jpg	0	0.9	654.228	657.963	654.558	0
52	2	20	155	658.25	4	Aircraft1_90%_40.jpg	0	0.9	658.25	661.982	658.31	0
52	2	20	156	662.296	4	Aircraft1_90%_27.jpg	0	0.9	662.296	666.026	663.048	0
52	2	20	157	666.346	4	Aircraft2_90%_35.jpg	1	0.9	666.346	670.08	667.389	1
52	2	20	158	670.368	4	rest.jpg	n/a	n/a	670.368	674.102	674.368	n/a
52	2	20	159	674.336	4	rest.jpg	n/a	n/a	674.336	678.068	678.336	n/a
52	2	20	160	678.315	4	rest.jpg	n/a	n/a	678.315	682.047	682.315	n/a
52	2	21	161	682.349	4	Aircraft2_70%_23.jpg	1	0.75	682.349	686.081	683.087	1
52	2	21	162	686.398	4	Aircraft1_70%_28.jpg	0	0.75	686.398	690.13	687.057	0
52	2	21	163	690.4	4	Aircraft2_70%_13.jpg	1	0.75	690.4	694.128	691.244	1
52	2	21	164	694.395	4	Aircraft1_70%_45.jpg	0	0.75	694.395	698.127	695.633	0
52	2	21	165	698.405	4	Aircraft1_70%_37.jpg	0	0.75	698.405	702.137	699.495	0
52	2	21	166	702.42	4	rest.jpg	n/a	n/a	702.42	706.151	706.42	n/a
52	2	21	167	706.395	4	rest.jpg	n/a	n/a	706.395	710.126	710.395	n/a
52	2	21	168	710.375	4	rest.jpg	n/a	n/a	710.375	714.106	714.375	n/a
52	2	22	169	714.386	4	Aircraft1_10%_25.jpg	0	0.1	714.386	718.117	715.296	0
52	2	22	170	718.434	4	Aircraft2_10%_49.jpg	1	0.1	718.434	722.163	719.016	1
52	2	22	171	722.48	4	Aircraft2_10%_10.jpg	1	0.1	722.48	726.217	723.255	1
52	2	22	172	726.49	4	Aircraft2_10%_12.jpg	1	0.1	726.49	730.224	727.101	1
52	2	22	173	730.498	4	Aircraft2_10%_7.jpg	1	0.1	730.498	734.233	731.277	1
52	2	22	174	734.497	4	rest.jpg	n/a	n/a	734.497	738.229	738.497	n/a
52	2	22	175	738.476	4	rest.jpg	n/a	n/a	738.476	742.207	742.476	n/a
52	2	22	176	742.453	4	rest.jpg	n/a	n/a	742.453	746.184	746.453	n/a
52	2	23	177	746.447	4	Aircraft2_90%_17.jpg	1	0.9	746.447	750.177	749.095	1
52	2	23	178	750.472	4	Aircraft2_90%_11.jpg	1	0.9	750.472	754.204	751.665	1
52	2	23	179	754.485	4	Aircraft1_90%_20.jpg	0	0.9	754.485	758.215	755.913	0
52	2	23	180	758.508	4	Aircraft2_90%_47.jpg	1	0.9	758.508	762.245	759.277	1
52	2	23	181	762.528	4	Aircraft2_90%_45.jpg	1	0.9	762.528	766.261	763.333	1
52	2	23	182	766.524	4	rest.jpg	n/a	n/a	766.524	770.253	767.582	n/a
52	2	23	183	770.485	4	rest.jpg	n/a	n/a	770.485	774.219	774.485	n/a
52	2	23	184	774.464	4	rest.jpg	n/a	n/a	774.464	778.198	778.464	n/a
52	2	24	185	778.514	4	Aircraft1_70%_38.jpg	0	0.75	778.514	782.245	779.588	0
52	2	24	186	782.524	4	Aircraft2_70%_21.jpg	1	0.75	782.524	786.253	783.319	1
52	2	24	187	786.56	4	Aircraft1_70%_16.jpg	0	0.75	786.56	790.292	787.539	0
52	2	24	188	790.609	4	Aircraft1_70%_46.jpg	0	0.75	790.609	794.338	791.733	0
52	2	24	189	794.656	4	Aircraft2_70%_40.jpg	1	0.75	794.656	798.388	796.895	1
52	2	24	190	798.653	4	rest.jpg	n/a	n/a	798.653	802.381	802.653	n/a
52	2	24	191	802.629	4	rest.jpg	n/a	n/a	802.629	806.36	806.629	n/a
52	2	24	192	806.591	4	rest.jpg	n/a	n/a	806.591	810.325	810.591	n/a
52	2	25	193	810.647	4	Aircraft1_10%_3.jpg	0	0.1	810.647	814.376	811.401	0
52	2	25	194	814.649	4	Aircraft2_10%_28.jpg	1	0.1	814.649	818.378	816.245	1
52	2	25	195	818.686	4	Aircraft1_10%_24.jpg	0	0.1	818.686	822.417	819.418	0
52	2	25	196	822.737	4	Aircraft2_10%_39.jpg	1	0.1	822.737	826.469	823.553	1
52	2	25	197	826.736	4	Aircraft2_10%_8.jpg	1	0.1	826.736	830.467	827.423	1
52	2	25	198	830.749	4	rest.jpg	n/a	n/a	830.749	834.48	834.749	n/a
52	2	25	199	834.728	4	rest.jpg	n/a	n/a	834.728	838.456	838.728	n/a
52	2	25	200	838.686	4	rest.jpg	n/a	n/a	838.686	842.416	842.686	n/a
52	2	26	201	842.933	4	Aircraft1_90%_36.jpg	0	0.9	842.933	846.667	844.844	0
52	2	26	202	846.975	4	Aircraft1_90%_35.jpg	0	0.9	846.975	850.706	848.895	0
52	2	26	203	850.975	4	Aircraft2_90%_3.jpg	1	0.9	850.975	854.71	853.852	1
52	2	26	204	854.986	4	Aircraft1_90%_5.jpg	0	0.9	854.986	858.72	856.211	0
52	2	26	205	859.034	4	Aircraft1_90%_48.jpg	0	0.9	859.034	862.769	859.825	0
52	2	26	206	863.057	4	rest.jpg	n/a	n/a	863.057	866.786	867.057	n/a
52	2	26	207	867.035	4	rest.jpg	n/a	n/a	867.035	870.764	871.035	n/a
52	2	26	208	871.013	4	rest.jpg	n/a	n/a	871.013	874.747	875.013	n/a
52	2	27	209	875.035	4	Aircraft2_70%_30.jpg	1	0.75	875.035	878.767	876.373	1
52	2	27	210	879.04	4	Aircraft2_70%_27.jpg	1	0.75	879.04	882.769	879.886	1
52	2	27	211	883.054	4	Aircraft2_70%_50.jpg	1	0.75	883.054	886.783	884.102	1
52	2	27	212	887.086	4	Aircraft2_70%_29.jpg	1	0.75	887.086	890.82	887.829	1
52	2	27	213	891.125	4	Aircraft1_70%_6.jpg	0	0.75	891.125	894.86	892.08	0
52	2	27	214	895.149	4	rest.jpg	n/a	n/a	895.149	898.885	899.149	n/a
52	2	27	215	899.12	4	rest.jpg	n/a	n/a	899.12	902.855	903.12	n/a
52	2	27	216	903.089	4	rest.jpg	n/a	n/a	903.089	906.825	907.089	n/a
52	2	28	217	907.157	4	Aircraft2_10%_14.jpg	1	0.1	907.157	910.886	908.036	1
52	2	28	218	911.202	4	Aircraft2_10%_5.jpg	1	0.1	911.202	914.933	913.645	1
52	2	28	219	915.219	4	Aircraft2_10%_15.jpg	1	0.1	915.219	918.953	915.832	1
52	2	28	220	919.252	4	Aircraft2_10%_19.jpg	1	0.1	919.252	922.987	919.754	1
52	2	28	221	923.303	4	Aircraft1_10%_31.jpg	0	0.1	923.303	927.038	924.049	0
52	2	28	222	927.323	4	rest.jpg	n/a	n/a	927.323	931.058	931.323	n/a
52	2	28	223	931.303	4	rest.jpg	n/a	n/a	931.303	935.035	935.303	n/a
52	2	28	224	935.285	4	rest.jpg	n/a	n/a	935.285	939.02	939.285	n/a
52	2	29	225	939.341	4	Aircraft1_90%_2.jpg	0	0.9	939.341	943.071	940.443	0
52	2	29	226	943.367	4	Aircraft1_90%_39.jpg	0	0.9	943.367	947.1	944.066	0
52	2	29	227	947.411	4	Aircraft2_90%_26.jpg	1	0.9	947.411	951.142	948.288	1
52	2	29	228	951.465	4	Aircraft1_90%_15.jpg	0	0.9	951.465	955.199	952.658	0
52	2	29	229	955.474	4	Aircraft2_90%_16.jpg	1	0.9	955.474	959.203	956.319	1
52	2	29	230	959.492	4	rest.jpg	n/a	n/a	959.492	963.226	963.492	n/a
52	2	29	231	963.475	4	rest.jpg	n/a	n/a	963.475	967.211	967.475	n/a
52	2	29	232	967.447	4	rest.jpg	n/a	n/a	967.447	971.178	971.447	n/a
52	2	30	233	971.452	4	Aircraft1_70%_1.jpg	0	0.75	971.452	975.184	972.442	0
52	2	30	234	975.481	4	Aircraft1_70%_47.jpg	0	0.75	975.481	979.215	976.266	0
52	2	30	235	979.527	4	Aircraft1_70%_40.jpg	0	0.75	979.527	983.261	980.297	0
52	2	30	236	983.568	4	Aircraft1_70%_27.jpg	0	0.75	983.568	987.301	984.208	0
52	2	30	237	987.575	4	Aircraft2_70%_35.jpg	1	0.75	987.575	991.31	988.403	1
52	2	30	238	991.583	4	rest.jpg	n/a	n/a	991.583	995.318	995.583	n/a
52	2	30	239	995.567	4	rest.jpg	n/a	n/a	995.567	999.298	999.567	n/a
52	2	30	240	999.545	4	rest.jpg	n/a	n/a	999.545	1003.277	1003.545	n/a
