sub	run	block	trail	oneset	duration	stim_file	stim_lable	level of occlusion	stim_started	stim_stopped	key_time	key_fix
62	1	1	1	40	4	Aircraft1_10%_2.jpg	0	0.1	40	43.73	42.083	0
62	1	1	2	44.01	4	Aircraft1_10%_39.jpg	0	0.1	44.01	47.746	45.903	0
62	1	1	3	48.028	4	Aircraft2_10%_26.jpg	1	0.1	48.028	51.764	49.084	1
62	1	1	4	52.033	4	Aircraft1_10%_15.jpg	0	0.1	52.033	55.764	53.455	0
62	1	1	5	56.032	4	Aircraft2_10%_16.jpg	1	0.1	56.032	59.763	57.249	1
62	1	1	6	60.027	4	rest.jpg	n/a	n/a	60.027	63.761	64.027	n/a
62	1	1	7	64.009	4	rest.jpg	n/a	n/a	64.009	67.747	68.009	n/a
62	1	1	8	67.995	4	rest.jpg	n/a	n/a	67.995	71.735	71.995	n/a
62	1	2	9	72.012	4	Aircraft2_90%_14.jpg	1	0.9	72.012	75.744	74.709	1
62	1	2	10	76.025	4	Aircraft2_90%_5.jpg	1	0.9	76.025	79.76	78.344	1
62	1	2	11	80.039	4	Aircraft2_90%_15.jpg	1	0.9	80.039	83.774	84.039	1
62	1	2	12	84.054	4	Aircraft2_90%_19.jpg	1	0.9	84.054	87.786	84.117	1
62	1	2	13	88.073	4	Aircraft1_90%_31.jpg	0	0.9	88.073	91.809	91.665	0
62	1	2	14	92.076	4	rest.jpg	n/a	n/a	92.076	95.806	96.076	n/a
62	1	2	15	96.038	4	rest.jpg	n/a	n/a	96.038	99.768	100.038	n/a
62	1	2	16	100.001	4	rest.jpg	n/a	n/a	100.001	103.732	104.001	n/a
62	1	3	17	104.019	4	Aircraft2_70%_4.jpg	1	0.75	104.019	107.751	108.019	1
62	1	3	18	108.019	4	Aircraft1_70%_43.jpg	0	0.75	108.019	111.751	111.599	0
62	1	3	19	112.033	4	Aircraft1_70%_9.jpg	0	0.75	112.033	115.763	116.033	0
62	1	3	20	116.029	4	Aircraft1_70%_11.jpg	0	0.75	116.029	119.765	120.029	0
62	1	3	21	120.044	4	Aircraft1_70%_50.jpg	0	0.75	120.044	123.778	120.312	0
62	1	3	22	124.057	4	rest.jpg	n/a	n/a	124.057	127.789	128.057	n/a
62	1	3	23	128.037	4	rest.jpg	n/a	n/a	128.037	131.769	132.037	n/a
62	1	3	24	132.001	4	rest.jpg	n/a	n/a	132.001	135.733	136.001	n/a
62	1	4	25	135.998	4	Aircraft1_10%_36.jpg	0	0.1	135.998	139.729	137.858	0
62	1	4	26	140.012	4	Aircraft1_10%_35.jpg	0	0.1	140.012	143.745	141.568	0
62	1	4	27	144.029	4	Aircraft2_10%_3.jpg	1	0.1	144.029	147.76	145.13	1
62	1	4	28	148.05	4	Aircraft1_10%_5.jpg	0	0.1	148.05	151.782	148.987	0
62	1	4	29	152.049	4	Aircraft1_10%_48.jpg	0	0.1	152.049	155.783	153.192	0
62	1	4	30	156.046	4	rest.jpg	n/a	n/a	156.046	159.777	160.046	n/a
62	1	4	31	160.024	4	rest.jpg	n/a	n/a	160.024	163.76	164.024	n/a
62	1	4	32	164.009	4	rest.jpg	n/a	n/a	164.009	167.746	168.009	n/a
62	1	5	33	168.027	4	Aircraft1_90%_3.jpg	0	0.9	168.027	171.76	170.138	0
62	1	5	34	172.039	4	Aircraft2_90%_28.jpg	1	0.9	172.039	175.773	174.064	1
62	1	5	35	176.035	4	Aircraft1_90%_24.jpg	0	0.9	176.035	179.768	177.984	0
62	1	5	36	180.048	4	Aircraft2_90%_39.jpg	1	0.9	180.048	183.779	181.493	1
62	1	5	37	184.058	4	Aircraft2_90%_8.jpg	1	0.9	184.058	187.793	185.273	1
62	1	5	38	188.074	4	rest.jpg	n/a	n/a	188.074	191.81	192.074	n/a
62	1	5	39	192.04	4	rest.jpg	n/a	n/a	192.04	195.776	196.04	n/a
62	1	5	40	196.02	4	rest.jpg	n/a	n/a	196.02	199.757	200.02	n/a
62	1	6	41	200.044	4	Aircraft2_70%_18.jpg	1	0.75	200.044	203.777	201.021	1
62	1	6	42	204.068	4	Aircraft1_70%_29.jpg	0	0.75	204.068	207.804	204.92	0
62	1	6	43	208.078	4	Aircraft2_70%_1.jpg	1	0.75	208.078	211.814	210.289	1
62	1	6	44	212.093	4	Aircraft1_70%_26.jpg	0	0.75	212.093	215.832	213.521	0
62	1	6	45	216.111	4	Aircraft2_70%_34.jpg	1	0.75	216.111	219.846	217.555	1
62	1	6	46	220.135	4	rest.jpg	n/a	n/a	220.135	223.866	224.135	n/a
62	1	6	47	224.099	4	rest.jpg	n/a	n/a	224.099	227.837	228.099	n/a
62	1	6	48	228.072	4	rest.jpg	n/a	n/a	228.072	231.802	232.072	n/a
62	1	7	49	232.074	4	Aircraft2_10%_17.jpg	1	0.1	232.074	235.812	233.726	1
62	1	7	50	236.107	4	Aircraft2_10%_11.jpg	1	0.1	236.107	239.842	236.88	1
62	1	7	51	240.137	4	Aircraft1_10%_20.jpg	0	0.1	240.137	243.868	241.001	0
62	1	7	52	244.144	4	Aircraft2_10%_47.jpg	1	0.1	244.144	247.874	245.062	1
62	1	7	53	248.145	4	Aircraft2_10%_45.jpg	1	0.1	248.145	251.877	249.665	1
62	1	7	54	252.149	4	rest.jpg	n/a	n/a	252.149	255.886	256.149	n/a
62	1	7	55	256.137	4	rest.jpg	n/a	n/a	256.137	259.867	260.137	n/a
62	1	7	56	260.119	4	rest.jpg	n/a	n/a	260.119	263.852	264.119	n/a
62	1	8	57	264.121	4	Aircraft1_90%_25.jpg	0	0.9	264.121	267.857	265.884	0
62	1	8	58	268.142	4	Aircraft2_90%_49.jpg	1	0.9	268.142	271.879	269.97	1
62	1	8	59	272.164	4	Aircraft2_90%_10.jpg	1	0.9	272.164	275.896	273.467	1
62	1	8	60	276.186	4	Aircraft2_90%_12.jpg	1	0.9	276.186	279.922	277.736	1
62	1	8	61	280.207	4	Aircraft2_90%_7.jpg	1	0.9	280.207	283.94	281.989	1
62	1	8	62	284.226	4	rest.jpg	n/a	n/a	284.226	287.956	288.226	n/a
62	1	8	63	288.193	4	rest.jpg	n/a	n/a	288.193	291.922	292.193	n/a
62	1	8	64	292.172	4	rest.jpg	n/a	n/a	292.172	295.902	296.172	n/a
62	1	9	65	296.176	4	Aircraft1_70%_32.jpg	0	0.75	296.176	299.91	297.696	0
62	1	9	66	300.183	4	Aircraft1_70%_49.jpg	0	0.75	300.183	303.915	301.482	0
62	1	9	67	304.204	4	Aircraft2_70%_22.jpg	1	0.75	304.204	307.942	305.519	1
62	1	9	68	308.229	4	Aircraft1_70%_34.jpg	0	0.75	308.229	311.965	309.742	0
62	1	9	69	312.252	4	Aircraft1_70%_14.jpg	0	0.75	312.252	315.982	313.748	0
62	1	9	70	316.253	4	rest.jpg	n/a	n/a	316.253	319.983	320.253	n/a
62	1	9	71	320.234	4	rest.jpg	n/a	n/a	320.234	323.97	324.234	n/a
62	1	9	72	324.223	4	rest.jpg	n/a	n/a	324.223	327.954	328.223	n/a
62	1	10	73	328.23	4	Aircraft1_10%_1.jpg	0	0.1	328.23	331.963	329.523	0
62	1	10	74	332.251	4	Aircraft1_10%_47.jpg	0	0.1	332.251	335.986	333.548	0
62	1	10	75	336.279	4	Aircraft1_10%_40.jpg	0	0.1	336.279	340.009	337.525	0
62	1	10	76	340.291	4	Aircraft1_10%_27.jpg	0	0.1	340.291	344.021	341.509	0
62	1	10	77	344.31	4	Aircraft2_10%_35.jpg	1	0.1	344.31	348.045	345.212	1
62	1	10	78	348.331	4	rest.jpg	n/a	n/a	348.331	352.066	352.331	n/a
62	1	10	79	352.3	4	rest.jpg	n/a	n/a	352.3	356.03	356.3	n/a
62	1	10	80	356.277	4	rest.jpg	n/a	n/a	356.277	360.012	360.277	n/a
62	1	11	81	360.3	4	Aircraft1_90%_32.jpg	0	0.9	360.3	364.037	362.575	0
62	1	11	82	364.317	4	Aircraft1_90%_49.jpg	0	0.9	364.317	368.052	365.951	0
62	1	11	83	368.318	4	Aircraft2_90%_22.jpg	1	0.9	368.318	372.05	369.83	1
62	1	11	84	372.317	4	Aircraft1_90%_34.jpg	0	0.9	372.317	376.054	374.21	0
62	1	11	85	376.339	4	Aircraft1_90%_14.jpg	0	0.9	376.339	380.069	377.788	0
62	1	11	86	380.358	4	rest.jpg	n/a	n/a	380.358	384.088	384.358	n/a
62	1	11	87	384.322	4	rest.jpg	n/a	n/a	384.322	388.052	388.322	n/a
62	1	11	88	388.301	4	rest.jpg	n/a	n/a	388.301	392.031	392.301	n/a
62	1	12	89	392.298	4	Aircraft2_70%_24.jpg	1	0.75	392.298	396.028	393.836	1
62	1	12	90	396.314	4	Aircraft2_70%_2.jpg	1	0.75	396.314	400.048	398.241	1
62	1	12	91	400.321	4	Aircraft2_70%_43.jpg	1	0.75	400.321	404.053	401.928	1
62	1	12	92	404.34	4	Aircraft2_70%_46.jpg	1	0.75	404.34	408.076	406.44	1
62	1	12	93	408.363	4	Aircraft1_70%_42.jpg	0	0.75	408.363	412.1	409.411	0
62	1	12	94	412.382	4	rest.jpg	n/a	n/a	412.382	416.115	416.382	n/a
62	1	12	95	416.349	4	rest.jpg	n/a	n/a	416.349	420.081	420.349	n/a
62	1	12	96	420.325	4	rest.jpg	n/a	n/a	420.325	424.056	424.325	n/a
62	1	13	97	424.331	4	Aircraft2_10%_30.jpg	1	0.1	424.331	428.061	426.084	1
62	1	13	98	428.346	4	Aircraft2_10%_27.jpg	1	0.1	428.346	432.079	429.182	1
62	1	13	99	432.367	4	Aircraft2_10%_50.jpg	1	0.1	432.367	436.099	433.209	1
62	1	13	100	436.385	4	Aircraft2_10%_29.jpg	1	0.1	436.385	440.117	437.089	1
62	1	13	101	440.392	4	Aircraft1_10%_6.jpg	0	0.1	440.392	444.122	441.225	0
62	1	13	102	444.409	4	rest.jpg	n/a	n/a	444.409	448.139	448.409	n/a
62	1	13	103	448.39	4	rest.jpg	n/a	n/a	448.39	452.127	452.39	n/a
62	1	13	104	452.377	4	rest.jpg	n/a	n/a	452.377	456.113	456.377	n/a
62	1	14	105	456.38	4	Aircraft2_90%_18.jpg	1	0.9	456.38	460.117	458.281	1
62	1	14	106	460.403	4	Aircraft1_90%_29.jpg	0	0.9	460.403	464.133	462.174	0
62	1	14	107	464.4	4	Aircraft2_90%_1.jpg	1	0.9	464.4	468.13	465.761	1
62	1	14	108	468.396	4	Aircraft1_90%_26.jpg	0	0.9	468.396	472.126	469.53	0
62	1	14	109	472.391	4	Aircraft2_90%_34.jpg	1	0.9	472.391	476.126	473.533	1
62	1	14	110	476.413	4	rest.jpg	n/a	n/a	476.413	480.145	480.413	n/a
62	1	14	111	480.395	4	rest.jpg	n/a	n/a	480.395	484.125	484.395	n/a
62	1	14	112	484.359	4	rest.jpg	n/a	n/a	484.359	488.096	488.359	n/a
62	1	15	113	488.369	4	Aircraft1_70%_17.jpg	0	0.75	488.369	492.106	489.55	0
62	1	15	114	492.391	4	Aircraft2_70%_42.jpg	1	0.75	492.391	496.124	493.963	1
62	1	15	115	496.396	4	Aircraft2_70%_44.jpg	1	0.75	496.396	500.126	497.534	1
62	1	15	116	500.399	4	Aircraft1_70%_10.jpg	0	0.75	500.399	504.128	501.216	0
62	1	15	117	504.399	4	Aircraft2_70%_25.jpg	1	0.75	504.399	508.129	506.008	1
62	1	15	118	508.397	4	rest.jpg	n/a	n/a	508.397	512.129	512.397	n/a
62	1	15	119	512.378	4	rest.jpg	n/a	n/a	512.378	516.115	516.378	n/a
62	1	15	120	516.367	4	rest.jpg	n/a	n/a	516.367	520.103	520.367	n/a
62	1	16	121	520.396	4	Aircraft1_10%_38.jpg	0	0.1	520.396	524.133	521.6	0
62	1	16	122	524.426	4	Aircraft2_10%_21.jpg	1	0.1	524.426	528.156	525.247	1
62	1	16	123	528.431	4	Aircraft1_10%_16.jpg	0	0.1	528.431	532.161	529.265	0
62	1	16	124	532.436	4	Aircraft1_10%_46.jpg	0	0.1	532.436	536.17	533.716	0
62	1	16	125	536.457	4	Aircraft2_10%_40.jpg	1	0.1	536.457	540.193	537.773	1
62	1	16	126	540.476	4	rest.jpg	n/a	n/a	540.476	544.206	544.476	n/a
62	1	16	127	544.438	4	rest.jpg	n/a	n/a	544.438	548.175	548.438	n/a
62	1	16	128	548.409	4	rest.jpg	n/a	n/a	548.409	552.146	552.409	n/a
62	1	17	129	552.413	4	Aircraft2_90%_4.jpg	1	0.9	552.413	556.145	553.719	1
62	1	17	130	556.429	4	Aircraft1_90%_43.jpg	0	0.9	556.429	560.159	557.993	0
62	1	17	131	560.44	4	Aircraft1_90%_9.jpg	0	0.9	560.44	564.173	562.06	0
62	1	17	132	564.455	4	Aircraft1_90%_11.jpg	0	0.9	564.455	568.191	565.979	0
62	1	17	133	568.458	4	Aircraft1_90%_50.jpg	0	0.9	568.458	572.193	570.04	0
62	1	17	134	572.478	4	rest.jpg	n/a	n/a	572.478	576.209	576.478	n/a
62	1	17	135	576.456	4	rest.jpg	n/a	n/a	576.456	580.186	580.456	n/a
62	1	17	136	580.696	4	rest.jpg	n/a	n/a	580.696	584.434	584.696	n/a
62	1	18	137	584.728	4	Aircraft1_70%_12.jpg	0	0.75	584.728	588.463	585.698	0
62	1	18	138	588.749	4	Aircraft2_70%_32.jpg	1	0.75	588.749	592.484	589.913	1
62	1	18	139	592.752	4	Aircraft2_70%_48.jpg	1	0.75	592.752	596.482	593.587	1
62	1	18	140	596.755	4	Aircraft1_70%_19.jpg	0	0.75	596.755	600.491	597.581	0
62	1	18	141	600.764	4	Aircraft1_70%_33.jpg	0	0.75	600.764	604.496	601.917	0
62	1	18	142	604.766	4	rest.jpg	n/a	n/a	604.766	608.496	608.766	n/a
62	1	18	143	608.73	4	rest.jpg	n/a	n/a	608.73	612.465	612.73	n/a
62	1	18	144	612.708	4	rest.jpg	n/a	n/a	612.708	616.445	616.708	n/a
62	1	19	145	616.736	4	Aircraft2_10%_23.jpg	1	0.1	616.736	620.466	617.956	1
62	1	19	146	620.753	4	Aircraft1_10%_28.jpg	0	0.1	620.753	624.484	621.725	0
62	1	19	147	624.775	4	Aircraft2_10%_13.jpg	1	0.1	624.775	628.512	625.637	1
62	1	19	148	628.795	4	Aircraft1_10%_45.jpg	0	0.1	628.795	632.529	629.733	0
62	1	19	149	632.821	4	Aircraft1_10%_37.jpg	0	0.1	632.821	636.557	633.561	0
62	1	19	150	636.839	4	rest.jpg	n/a	n/a	636.839	640.572	640.839	n/a
62	1	19	151	640.806	4	rest.jpg	n/a	n/a	640.806	644.541	644.806	n/a
62	1	19	152	644.794	4	rest.jpg	n/a	n/a	644.794	648.529	648.794	n/a
62	1	20	153	648.794	4	Aircraft2_90%_33.jpg	1	0.9	648.794	652.524	650.221	1
62	1	20	154	652.788	4	Aircraft2_90%_38.jpg	1	0.9	652.788	656.523	654.655	1
62	1	20	155	656.788	4	Aircraft1_90%_30.jpg	0	0.9	656.788	660.524	658.006	0
62	1	20	156	660.804	4	Aircraft1_90%_41.jpg	0	0.9	660.804	664.541	662.296	0
62	1	20	157	664.808	4	Aircraft1_90%_18.jpg	0	0.9	664.808	668.538	666.023	0
62	1	20	158	668.819	4	rest.jpg	n/a	n/a	668.819	672.549	672.819	n/a
62	1	20	159	672.783	4	rest.jpg	n/a	n/a	672.783	676.513	676.783	n/a
62	1	20	160	676.747	4	rest.jpg	n/a	n/a	676.747	680.485	680.747	n/a
62	1	21	161	680.758	4	Aircraft2_70%_9.jpg	1	0.75	680.758	684.487	681.769	1
62	1	21	162	684.753	4	Aircraft2_70%_6.jpg	1	0.75	684.753	688.486	685.842	1
62	1	21	163	688.772	4	Aircraft1_70%_23.jpg	0	0.75	688.772	692.509	690.201	0
62	1	21	164	692.782	4	Aircraft1_70%_21.jpg	0	0.75	692.782	696.512	693.604	0
62	1	21	165	696.803	4	Aircraft2_70%_36.jpg	1	0.75	696.803	700.533	697.81	1
62	1	21	166	700.819	4	rest.jpg	n/a	n/a	700.819	704.555	704.819	n/a
62	1	21	167	704.805	4	rest.jpg	n/a	n/a	704.805	708.535	708.805	n/a
62	1	21	168	708.784	4	rest.jpg	n/a	n/a	708.784	712.52	712.784	n/a
62	1	22	169	712.794	4	Aircraft2_10%_41.jpg	1	0.1	712.794	716.53	713.736	1
62	1	22	170	716.818	4	Aircraft1_10%_22.jpg	0	0.1	716.818	720.552	717.725	0
62	1	22	171	720.82	4	Aircraft1_10%_44.jpg	0	0.1	720.82	724.556	722.04	0
62	1	22	172	724.829	4	Aircraft1_10%_1.jpg	0	0.1	724.829	728.564	726.062	0
62	1	22	173	728.832	4	Aircraft2_10%_37.jpg	1	0.1	728.832	732.567	729.892	1
62	1	22	174	732.853	4	rest.jpg	n/a	n/a	732.853	736.59	736.853	n/a
62	1	22	175	736.84	4	rest.jpg	n/a	n/a	736.84	740.575	740.84	n/a
62	1	22	176	740.824	4	rest.jpg	n/a	n/a	740.824	744.555	744.824	n/a
62	1	23	177	744.822	4	Aircraft2_90%_31.jpg	1	0.9	744.822	748.557	746.272	1
62	1	23	178	748.824	4	Aircraft1_90%_4.jpg	0	0.9	748.824	752.559	750.261	0
62	1	23	179	752.825	4	Aircraft2_90%_20.jpg	1	0.9	752.825	756.562	754.547	1
62	1	23	180	756.846	4	Aircraft1_90%_7.jpg	0	0.9	756.846	760.581	758.548	0
62	1	23	181	760.848	4	Aircraft1_90%_8.jpg	0	0.9	760.848	764.583	762.613	0
62	1	23	182	764.87	4	rest.jpg	n/a	n/a	764.87	768.6	768.87	n/a
62	1	23	183	768.849	4	rest.jpg	n/a	n/a	768.849	772.584	772.849	n/a
62	1	23	184	772.818	4	rest.jpg	n/a	n/a	772.818	776.549	776.818	n/a
62	1	24	185	776.822	4	Aircraft2_70%_14.jpg	1	0.75	776.822	780.555	777.937	1
62	1	24	186	780.839	4	Aircraft2_70%_5.jpg	1	0.75	780.839	784.571	782.398	1
62	1	24	187	784.858	4	Aircraft2_70%_15.jpg	1	0.75	784.858	788.588	785.825	1
62	1	24	188	788.869	4	Aircraft2_70%_19.jpg	1	0.75	788.869	792.6	790.678	1
62	1	24	189	792.89	4	Aircraft1_70%_31.jpg	0	0.75	792.89	796.628	794.688	0
62	1	24	190	796.909	4	rest.jpg	n/a	n/a	796.909	800.641	800.909	n/a
62	1	24	191	800.875	4	rest.jpg	n/a	n/a	800.875	804.606	804.875	n/a
62	1	24	192	804.84	4	rest.jpg	n/a	n/a	804.84	808.577	808.84	n/a
62	1	25	193	808.851	4	Aircraft2_10%_9.jpg	1	0.1	808.851	812.588	810.005	1
62	1	25	194	812.87	4	Aircraft2_10%_6.jpg	1	0.1	812.87	816.607	814.098	1
62	1	25	195	816.882	4	Aircraft1_10%_23.jpg	0	0.1	816.882	820.612	818.385	0
62	1	25	196	820.903	4	Aircraft1_10%_21.jpg	0	0.1	820.903	824.632	822.228	0
62	1	25	197	824.902	4	Aircraft2_10%_36.jpg	1	0.1	824.902	828.637	827.001	1
62	1	25	198	828.92	4	rest.jpg	n/a	n/a	828.92	832.652	832.92	n/a
62	1	25	199	832.886	4	rest.jpg	n/a	n/a	832.886	836.618	836.886	n/a
62	1	25	200	836.852	4	rest.jpg	n/a	n/a	836.852	840.59	840.852	n/a
62	1	26	201	840.857	4	Aircraft2_90%_24.jpg	1	0.9	840.857	844.589	842.541	1
62	1	26	202	844.874	4	Aircraft2_90%_2.jpg	1	0.9	844.874	848.606	846.628	1
62	1	26	203	848.873	4	Aircraft2_90%_43.jpg	1	0.9	848.873	852.605	850.604	1
62	1	26	204	852.885	4	Aircraft2_90%_46.jpg	1	0.9	852.885	856.62	855.21	1
62	1	26	205	856.905	4	Aircraft1_90%_42.jpg	0	0.9	856.905	860.634	858.597	0
62	1	26	206	860.919	4	rest.jpg	n/a	n/a	860.919	864.65	864.919	n/a
62	1	26	207	864.882	4	rest.jpg	n/a	n/a	864.882	868.618	868.882	n/a
62	1	26	208	868.868	4	rest.jpg	n/a	n/a	868.868	872.599	872.868	n/a
62	1	27	209	872.892	4	Aircraft1_70%_3.jpg	0	0.75	872.892	876.622	874.02	0
62	1	27	210	876.895	4	Aircraft2_70%_28.jpg	1	0.75	876.895	880.627	877.943	1
62	1	27	211	880.914	4	Aircraft1_70%_24.jpg	0	0.75	880.914	884.65	881.985	0
62	1	27	212	884.942	4	Aircraft2_70%_39.jpg	1	0.75	884.942	888.672	886.147	1
62	1	27	213	888.945	4	Aircraft2_70%_8.jpg	1	0.75	888.945	892.677	890.524	1
62	1	27	214	892.964	4	rest.jpg	n/a	n/a	892.964	896.698	896.964	n/a
62	1	27	215	896.945	4	rest.jpg	n/a	n/a	896.945	900.68	900.945	n/a
62	1	27	216	900.931	4	rest.jpg	n/a	n/a	900.931	904.666	904.931	n/a
62	1	28	217	904.941	4	Aircraft1_10%_12.jpg	0	0.1	904.941	908.671	906.109	0
62	1	28	218	908.96	4	Aircraft2_10%_32.jpg	1	0.1	908.96	912.692	909.824	1
62	1	28	219	912.983	4	Aircraft2_10%_48.jpg	1	0.1	912.983	916.719	914.69	1
62	1	28	220	917.002	4	Aircraft1_10%_19.jpg	0	0.1	917.002	920.734	918.346	0
62	1	28	221	921.019	4	Aircraft1_10%_33.jpg	0	0.1	921.019	924.749	922.585	0
62	1	28	222	925.035	4	rest.jpg	n/a	n/a	925.035	928.772	929.035	n/a
62	1	28	223	929.019	4	rest.jpg	n/a	n/a	929.019	932.748	933.019	n/a
62	1	28	224	932.98	4	rest.jpg	n/a	n/a	932.98	936.71	936.98	n/a
62	1	29	225	936.975	4	Aircraft1_90%_17.jpg	0	0.9	936.975	940.711	938.705	0
62	1	29	226	940.991	4	Aircraft2_90%_42.jpg	1	0.9	940.991	944.721	942.434	1
62	1	29	227	945.008	4	Aircraft2_90%_44.jpg	1	0.9	945.008	948.746	946.321	1
62	1	29	228	949.031	4	Aircraft1_90%_10.jpg	0	0.9	949.031	952.763	950.102	0
62	1	29	229	953.049	4	Aircraft2_90%_25.jpg	1	0.9	953.049	956.784	954.654	1
62	1	29	230	957.071	4	rest.jpg	n/a	n/a	957.071	960.806	961.071	n/a
62	1	29	231	961.055	4	rest.jpg	n/a	n/a	961.055	964.785	965.055	n/a
62	1	29	232	965.037	4	rest.jpg	n/a	n/a	965.037	968.772	969.037	n/a
62	1	30	233	969.058	4	Aircraft1_70%_25.jpg	0	0.75	969.058	972.788	970.078	0
62	1	30	234	973.063	4	Aircraft2_70%_49.jpg	1	0.75	973.063	976.799	974.265	1
62	1	30	235	977.084	4	Aircraft2_70%_10.jpg	1	0.75	977.084	980.821	977.956	1
62	1	30	236	981.094	4	Aircraft2_70%_12.jpg	1	0.75	981.094	984.826	982.174	1
62	1	30	237	985.117	4	Aircraft2_70%_7.jpg	1	0.75	985.117	988.854	986.337	1
62	1	30	238	989.124	4	rest.jpg	n/a	n/a	989.124	992.854	993.124	n/a
62	1	30	239	993.088	4	rest.jpg	n/a	n/a	993.088	996.819	997.088	n/a
62	1	30	240	997.066	4	rest.jpg	n/a	n/a	997.066	1000.803	1001.066	n/a
