onset	duration	stim_file	stim_lable	levelOfOcclusion	stim_started	stim_stopped	key_time	key_fix	stim_started_1	stim_stopped_1	key_time_1	key_fix_1
39.998	4	Aircraft1_10%_2.jpg	0	0.1	39.998	43.731	41.114	0	39.998	43.731	41.114	0
44.019	4	Aircraft1_10%_39.jpg	0	0.1	44.019	47.752	45.38	0	44.019	47.752	45.38	0
48.038	4	Aircraft2_10%_26.jpg	1	0.1	48.038	51.772	48.829	1	48.038	51.772	48.829	1
52.049	4	Aircraft1_10%_15.jpg	0	0.1	52.049	55.786	53.028	0	52.049	55.786	53.028	0
56.081	4	Aircraft2_10%_16.jpg	1	0.1	56.081	59.814	56.789	1	56.081	59.814	56.789	1
60.106	4	rest.jpg	NaN	NaN	60.106	63.843	64.106	NaN	60.106	63.843	64.106	NaN
64.092	4	rest.jpg	NaN	NaN	64.092	67.823	68.092	NaN	64.092	67.823	68.092	NaN
68.075	4	rest.jpg	NaN	NaN	68.075	71.806	72.075	NaN	68.075	71.806	72.075	NaN
72.092	4	Aircraft2_90%_14.jpg	1	0.9	72.092	75.823	73.534	1	72.092	75.823	73.534	1
76.106	4	Aircraft2_90%_5.jpg	1	0.9	76.106	79.838	77.008	1	76.106	79.838	77.008	1
80.12	4	Aircraft2_90%_15.jpg	1	0.9	80.12	83.852	84.12	1	80.12	83.852	84.12	1
84.119	4	Aircraft2_90%_19.jpg	1	0.9	84.119	87.85	85.896	1	84.119	87.85	85.896	1
88.13	4	Aircraft1_90%_31.jpg	0	0.9	88.13	91.868	89.839	0	88.13	91.868	89.839	0
92.14	4	rest.jpg	NaN	NaN	92.14	95.87	96.14	NaN	92.14	95.87	96.14	NaN
96.105	4	rest.jpg	NaN	NaN	96.105	99.841	100.105	NaN	96.105	99.841	100.105	NaN
100.093	4	rest.jpg	NaN	NaN	100.093	103.83	104.093	NaN	100.093	103.83	104.093	NaN
104.12	4	Aircraft2_70%_4.jpg	1	0.75	104.12	107.85	105.057	1	104.12	107.85	105.057	1
108.125	4	Aircraft1_70%_43.jpg	0	0.75	108.125	111.858	110.156	0	108.125	111.858	110.156	0
112.134	4	Aircraft1_70%_9.jpg	0	0.75	112.134	115.864	116.134	0	112.134	115.864	116.134	0
116.152	4	Aircraft1_70%_11.jpg	0	0.75	116.152	119.887	117.663	0	116.152	119.887	117.663	0
120.162	4	Aircraft1_70%_50.jpg	0	0.75	120.162	123.897	121.025	0	120.162	123.897	121.025	0
124.185	4	rest.jpg	NaN	NaN	124.185	127.917	128.185	NaN	124.185	127.917	128.185	NaN
128.17	4	rest.jpg	NaN	NaN	128.17	131.907	132.17	NaN	128.17	131.907	132.17	NaN
132.158	4	rest.jpg	NaN	NaN	132.158	135.89	136.158	NaN	132.158	135.89	136.158	NaN
136.162	4	Aircraft1_10%_36.jpg	0	0.1	136.162	139.894	137.359	0	136.162	139.894	137.359	0
140.179	4	Aircraft1_10%_35.jpg	0	0.1	140.179	143.911	141.253	0	140.179	143.911	141.253	0
144.183	4	Aircraft2_10%_3.jpg	1	0.1	144.183	147.92	145.021	1	144.183	147.92	145.021	1
148.211	4	Aircraft1_10%_5.jpg	0	0.1	148.211	151.942	149.085	0	148.211	151.942	149.085	0
152.237	4	Aircraft1_10%_48.jpg	0	0.1	152.237	155.969	153.643	0	152.237	155.969	153.643	0
156.241	4	rest.jpg	NaN	NaN	156.241	159.978	160.241	NaN	156.241	159.978	160.241	NaN
160.236	4	rest.jpg	NaN	NaN	160.236	163.967	164.236	NaN	160.236	163.967	164.236	NaN
164.22	4	rest.jpg	NaN	NaN	164.22	167.953	168.22	NaN	164.22	167.953	168.22	NaN
168.24	4	Aircraft1_90%_3.jpg	0	0.9	168.24	171.976	169.052	0	168.24	171.976	169.052	0
172.244	4	Aircraft2_90%_28.jpg	1	0.9	172.244	175.977	173.336	1	172.244	175.977	173.336	1
176.262	4	Aircraft1_90%_24.jpg	0	0.9	176.262	179.994	177.118	0	176.262	179.994	177.118	0
180.278	4	Aircraft2_90%_39.jpg	1	0.9	180.278	184.01	181.275	1	180.278	184.01	181.275	1
184.279	4	Aircraft2_90%_8.jpg	1	0.9	184.279	188.016	185.663	1	184.279	188.016	185.663	1
188.297	4	rest.jpg	NaN	NaN	188.297	192.027	192.297	NaN	188.297	192.027	192.297	NaN
192.275	4	rest.jpg	NaN	NaN	192.275	196.011	196.275	NaN	192.275	196.011	196.275	NaN
196.263	4	rest.jpg	NaN	NaN	196.263	199.999	200.263	NaN	196.263	199.999	200.263	NaN
200.274	4	Aircraft2_70%_18.jpg	1	0.75	200.274	204.009	200.893	1	200.274	204.009	200.893	1
204.302	4	Aircraft1_70%_29.jpg	0	0.75	204.302	208.039	205.276	0	204.302	208.039	205.276	0
208.33	4	Aircraft2_70%_1.jpg	1	0.75	208.33	212.06	210.201	1	208.33	212.06	210.201	1
212.348	4	Aircraft1_70%_26.jpg	0	0.75	212.348	216.082	213.321	0	212.348	216.082	213.321	0
216.371	4	Aircraft2_70%_34.jpg	1	0.75	216.371	220.102	217.384	1	216.371	220.102	217.384	1
220.389	4	rest.jpg	NaN	NaN	220.389	224.122	224.389	NaN	220.389	224.122	224.389	NaN
224.371	4	rest.jpg	NaN	NaN	224.371	228.102	228.371	NaN	224.371	228.102	228.371	NaN
228.351	4	rest.jpg	NaN	NaN	228.351	232.086	232.351	NaN	228.351	232.086	232.351	NaN
232.365	4	Aircraft2_10%_17.jpg	1	0.1	232.365	236.101	233.45	1	232.365	236.101	233.45	1
236.391	4	Aircraft2_10%_11.jpg	1	0.1	236.391	240.127	238.329	1	236.391	240.127	238.329	1
240.418	4	Aircraft1_10%_20.jpg	0	0.1	240.418	244.148	241.172	0	240.418	244.148	241.172	0
244.423	4	Aircraft2_10%_47.jpg	1	0.1	244.423	248.155	245.187	1	244.423	248.155	245.187	1
248.439	4	Aircraft2_10%_45.jpg	1	0.1	248.439	252.173	250.723	1	248.439	252.173	250.723	1
252.442	4	rest.jpg	NaN	NaN	252.442	256.178	256.442	NaN	252.442	256.178	256.442	NaN
256.409	4	rest.jpg	NaN	NaN	256.409	260.142	260.409	NaN	256.409	260.142	260.409	NaN
260.376	4	rest.jpg	NaN	NaN	260.376	264.112	264.376	NaN	260.376	264.112	264.376	NaN
264.381	4	Aircraft1_90%_25.jpg	0	0.9	264.381	268.111	265.044	0	264.381	268.111	265.044	0
268.389	4	Aircraft2_90%_49.jpg	1	0.9	268.389	272.122	269.722	1	268.389	272.122	269.722	1
272.389	4	Aircraft2_90%_10.jpg	1	0.9	272.389	276.119	273.862	1	272.389	276.119	273.862	1
276.398	4	Aircraft2_90%_12.jpg	1	0.9	276.398	280.134	277.716	1	276.398	280.134	277.716	1
280.403	4	Aircraft2_90%_7.jpg	1	0.9	280.403	284.134	281.257	1	280.403	284.134	281.257	1
284.416	4	rest.jpg	NaN	NaN	284.416	288.152	288.416	NaN	284.416	288.152	288.416	NaN
288.384	4	rest.jpg	NaN	NaN	288.384	292.116	292.384	NaN	288.384	292.116	292.384	NaN
292.359	4	rest.jpg	NaN	NaN	292.359	296.094	296.359	NaN	292.359	296.094	296.359	NaN
296.378	4	Aircraft1_70%_32.jpg	0	0.75	296.378	300.113	297.598	0	296.378	300.113	297.598	0
300.403	4	Aircraft1_70%_49.jpg	0	0.75	300.403	304.136	301.58	0	300.403	304.136	301.58	0
304.419	4	Aircraft2_70%_22.jpg	1	0.75	304.419	308.152	305.466	1	304.419	308.152	305.466	1
308.444	4	Aircraft1_70%_34.jpg	0	0.75	308.444	312.18	309.242	0	308.444	312.18	309.242	0
312.466	4	Aircraft1_70%_14.jpg	0	0.75	312.466	316.203	314.259	0	312.466	316.203	314.259	0
316.485	4	rest.jpg	NaN	NaN	316.485	320.217	320.485	NaN	316.485	320.217	320.485	NaN
320.463	4	rest.jpg	NaN	NaN	320.463	324.192	324.463	NaN	320.463	324.192	324.463	NaN
324.424	4	rest.jpg	NaN	NaN	324.424	328.156	328.424	NaN	324.424	328.156	328.424	NaN
328.448	4	Aircraft1_10%_1.jpg	0	0.1	328.448	332.178	329.317	0	328.448	332.178	329.317	0
332.465	4	Aircraft1_10%_47.jpg	0	0.1	332.465	336.195	333.601	0	332.465	336.195	333.601	0
336.471	4	Aircraft1_10%_40.jpg	0	0.1	336.471	340.208	337.382	0	336.471	340.208	337.382	0
340.487	4	Aircraft1_10%_27.jpg	0	0.1	340.487	344.219	341.934	0	340.487	344.219	341.934	0
344.502	4	Aircraft2_10%_35.jpg	1	0.1	344.502	348.232	345.236	1	344.502	348.232	345.236	1
348.518	4	rest.jpg	NaN	NaN	348.518	352.248	352.518	NaN	348.518	352.248	352.518	NaN
352.482	4	rest.jpg	NaN	NaN	352.482	356.219	356.482	NaN	352.482	356.219	356.482	NaN
356.453	4	rest.jpg	NaN	NaN	356.453	360.187	360.453	NaN	356.453	360.187	360.453	NaN
360.47	4	Aircraft1_90%_32.jpg	0	0.9	360.47	364.202	361.79	0	360.47	364.202	361.79	0
364.48	4	Aircraft1_90%_49.jpg	0	0.9	364.48	368.218	365.761	0	364.48	368.218	365.761	0
368.486	4	Aircraft2_90%_22.jpg	1	0.9	368.486	372.222	370.056	1	368.486	372.222	370.056	1
372.489	4	Aircraft1_90%_34.jpg	0	0.9	372.489	376.219	373.196	0	372.489	376.219	373.196	0
376.486	4	Aircraft1_90%_14.jpg	0	0.9	376.486	380.218	377.348	0	376.486	380.218	377.348	0
380.5	4	rest.jpg	NaN	NaN	380.5	384.23	384.5	NaN	380.5	384.23	384.5	NaN
384.464	4	rest.jpg	NaN	NaN	384.464	388.199	388.464	NaN	384.464	388.199	388.464	NaN
388.444	4	rest.jpg	NaN	NaN	388.444	392.174	392.444	NaN	388.444	392.174	392.444	NaN
392.458	4	Aircraft2_70%_24.jpg	1	0.75	392.458	396.187	393.461	1	392.458	396.187	393.461	1
396.472	4	Aircraft2_70%_2.jpg	1	0.75	396.472	400.207	397.662	1	396.472	400.207	397.662	1
400.489	4	Aircraft2_70%_43.jpg	1	0.75	400.489	404.225	401.052	1	400.489	404.225	401.052	1
404.489	4	Aircraft2_70%_46.jpg	1	0.75	404.489	408.219	405.17	1	404.489	408.219	405.17	1
408.505	4	Aircraft1_70%_42.jpg	0	0.75	408.505	412.24	409.267	0	408.505	412.24	409.267	0
412.526	4	rest.jpg	NaN	NaN	412.526	416.261	416.526	NaN	412.526	416.261	416.526	NaN
416.51	4	rest.jpg	NaN	NaN	416.51	420.246	420.51	NaN	416.51	420.246	420.51	NaN
420.495	4	rest.jpg	NaN	NaN	420.495	424.228	424.495	NaN	420.495	424.228	424.495	NaN
424.496	4	Aircraft2_10%_30.jpg	1	0.1	424.496	428.229	425.62	1	424.496	428.229	425.62	1
428.493	4	Aircraft2_10%_27.jpg	1	0.1	428.493	432.228	430.008	1	428.493	432.228	430.008	1
432.496	4	Aircraft2_10%_50.jpg	1	0.1	432.496	436.228	433.832	1	432.496	436.228	433.832	1
436.497	4	Aircraft2_10%_29.jpg	1	0.1	436.497	440.229	438.976	1	436.497	440.229	438.976	1
440.514	4	Aircraft1_10%_6.jpg	0	0.1	440.514	444.249	441.648	0	440.514	444.249	441.648	0
444.533	4	rest.jpg	NaN	NaN	444.533	448.269	448.533	NaN	444.533	448.269	448.533	NaN
448.499	4	rest.jpg	NaN	NaN	448.499	452.237	452.499	NaN	448.499	452.237	452.499	NaN
452.487	4	rest.jpg	NaN	NaN	452.487	456.219	456.487	NaN	452.487	456.219	456.487	NaN
456.499	4	Aircraft2_90%_18.jpg	1	0.9	456.499	460.235	457.928	1	456.499	460.235	457.928	1
460.5	4	Aircraft1_90%_29.jpg	0	0.9	460.5	464.23	461.674	0	460.5	464.23	461.674	0
464.493	4	Aircraft2_90%_1.jpg	1	0.9	464.493	468.228	465.159	1	464.493	468.228	465.159	1
468.489	4	Aircraft1_90%_26.jpg	0	0.9	468.489	472.219	470.369	0	468.489	472.219	470.369	0
472.497	4	Aircraft2_90%_34.jpg	1	0.9	472.497	476.234	473.166	1	472.497	476.234	473.166	1
476.498	4	rest.jpg	NaN	NaN	476.498	480.231	480.498	NaN	476.498	480.231	480.498	NaN
480.477	4	rest.jpg	NaN	NaN	480.477	484.212	484.477	NaN	480.477	484.212	484.477	NaN
484.444	4	rest.jpg	NaN	NaN	484.444	488.174	488.444	NaN	484.444	488.174	488.444	NaN
488.441	4	Aircraft1_70%_17.jpg	0	0.75	488.441	492.177	489.356	0	488.441	492.177	489.356	0
492.457	4	Aircraft2_70%_42.jpg	1	0.75	492.457	496.192	493.345	1	492.457	496.192	493.345	1
496.471	4	Aircraft2_70%_44.jpg	1	0.75	496.471	500.201	497.317	1	496.471	500.201	497.317	1
500.485	4	Aircraft1_70%_10.jpg	0	0.75	500.485	504.219	501.365	0	500.485	504.219	501.365	0
504.485	4	Aircraft2_70%_25.jpg	1	0.75	504.485	508.217	505.5	1	504.485	508.217	505.5	1
508.497	4	rest.jpg	NaN	NaN	508.497	512.232	512.497	NaN	508.497	512.232	512.497	NaN
512.481	4	rest.jpg	NaN	NaN	512.481	516.213	516.481	NaN	512.481	516.213	516.481	NaN
516.446	4	rest.jpg	NaN	NaN	516.446	520.179	520.446	NaN	516.446	520.179	520.446	NaN
520.447	4	Aircraft1_10%_38.jpg	0	0.1	520.447	524.177	521.119	0	520.447	524.177	521.119	0
524.462	4	Aircraft2_10%_21.jpg	1	0.1	524.462	528.199	525.384	1	524.462	528.199	525.384	1
528.468	4	Aircraft1_10%_16.jpg	0	0.1	528.468	532.204	529.202	0	528.468	532.204	529.202	0
532.472	4	Aircraft1_10%_46.jpg	0	0.1	532.472	536.202	533.252	0	532.472	536.202	533.252	0
536.483	4	Aircraft2_10%_40.jpg	1	0.1	536.483	540.22	537.376	1	536.483	540.22	537.376	1
540.501	4	rest.jpg	NaN	NaN	540.501	544.233	544.501	NaN	540.501	544.233	544.501	NaN
544.48	4	rest.jpg	NaN	NaN	544.48	548.217	548.48	NaN	544.48	548.217	548.48	NaN
548.461	4	rest.jpg	NaN	NaN	548.461	552.193	552.461	NaN	548.461	552.193	552.461	NaN
552.471	4	Aircraft2_90%_4.jpg	1	0.9	552.471	556.203	553.947	1	552.471	556.203	553.947	1
556.465	4	Aircraft1_90%_43.jpg	0	0.9	556.465	560.195	557.534	0	556.465	560.195	557.534	0
560.478	4	Aircraft1_90%_9.jpg	0	0.9	560.478	564.208	561.51	0	560.478	564.208	561.51	0
564.482	4	Aircraft1_90%_11.jpg	0	0.9	564.482	568.214	565.159	0	564.482	568.214	565.159	0
568.495	4	Aircraft1_90%_50.jpg	0	0.9	568.495	572.228	569.263	0	568.495	572.228	569.263	0
572.492	4	rest.jpg	NaN	NaN	572.492	576.221	576.492	NaN	572.492	576.221	576.492	NaN
576.452	4	rest.jpg	NaN	NaN	576.452	580.183	580.452	NaN	576.452	580.183	580.452	NaN
580.432	4	rest.jpg	NaN	NaN	580.432	584.162	584.432	NaN	580.432	584.162	584.432	NaN
584.429	4	Aircraft1_70%_12.jpg	0	0.75	584.429	588.161	585.684	0	584.429	588.161	585.684	0
588.431	4	Aircraft2_70%_32.jpg	1	0.75	588.431	592.168	589.668	1	588.431	592.168	589.668	1
592.448	4	Aircraft2_70%_48.jpg	1	0.75	592.448	596.185	593.676	1	592.448	596.185	593.676	1
596.466	4	Aircraft1_70%_19.jpg	0	0.75	596.466	600.199	597.206	0	596.466	600.199	597.206	0
600.466	4	Aircraft1_70%_33.jpg	0	0.75	600.466	604.198	601.729	0	600.466	604.198	601.729	0
604.481	4	rest.jpg	NaN	NaN	604.481	608.211	608.481	NaN	604.481	608.211	608.481	NaN
608.456	4	rest.jpg	NaN	NaN	608.456	612.188	612.456	NaN	608.456	612.188	612.456	NaN
612.435	4	rest.jpg	NaN	NaN	612.435	616.165	616.435	NaN	612.435	616.165	616.435	NaN
616.446	4	Aircraft2_10%_23.jpg	1	0.1	616.446	620.183	618.226	1	616.446	620.183	618.226	1
620.459	4	Aircraft1_10%_28.jpg	0	0.1	620.459	624.191	621.064	0	620.459	624.191	621.064	0
624.482	4	Aircraft2_10%_13.jpg	1	0.1	624.482	628.214	625.403	1	624.482	628.214	625.403	1
628.486	4	Aircraft1_10%_45.jpg	0	0.1	628.486	632.224	629.304	0	628.486	632.224	629.304	0
632.5	4	Aircraft1_10%_37.jpg	0	0.1	632.5	636.233	633.622	0	632.5	636.233	633.622	0
636.516	4	rest.jpg	NaN	NaN	636.516	640.246	640.516	NaN	636.516	640.246	640.516	NaN
640.493	4	rest.jpg	NaN	NaN	640.493	644.228	644.493	NaN	640.493	644.228	644.493	NaN
644.462	4	rest.jpg	NaN	NaN	644.462	648.198	648.462	NaN	644.462	648.198	648.462	NaN
648.469	4	Aircraft2_90%_33.jpg	1	0.9	648.469	652.199	649.463	1	648.469	652.199	649.463	1
652.483	4	Aircraft2_90%_38.jpg	1	0.9	652.483	656.22	654.012	1	652.483	656.22	654.012	1
656.503	4	Aircraft1_90%_30.jpg	0	0.9	656.503	660.235	657.921	0	656.503	660.235	657.921	0
660.514	4	Aircraft1_90%_41.jpg	0	0.9	660.514	664.249	662.175	0	660.514	664.249	662.175	0
664.518	4	Aircraft1_90%_18.jpg	0	0.9	664.518	668.253	665.523	0	664.518	668.253	665.523	0
668.541	4	rest.jpg	NaN	NaN	668.541	672.271	672.541	NaN	668.541	672.271	672.541	NaN
672.521	4	rest.jpg	NaN	NaN	672.521	676.256	676.521	NaN	672.521	676.256	676.521	NaN
676.49	4	rest.jpg	NaN	NaN	676.49	680.224	680.49	NaN	676.49	680.224	680.49	NaN
680.515	4	Aircraft2_70%_9.jpg	1	0.75	680.515	684.251	681.654	1	680.515	684.251	681.654	1
684.537	4	Aircraft2_70%_6.jpg	1	0.75	684.537	688.27	685.448	1	684.537	688.27	685.448	1
688.543	4	Aircraft1_70%_23.jpg	0	0.75	688.543	692.275	690.25	0	688.543	692.275	690.25	0
692.565	4	Aircraft1_70%_21.jpg	0	0.75	692.565	696.295	693.527	0	692.565	696.295	693.527	0
696.586	4	Aircraft2_70%_36.jpg	1	0.75	696.586	700.317	697.359	1	696.586	700.317	697.359	1
700.603	4	rest.jpg	NaN	NaN	700.603	704.333	704.603	NaN	700.603	704.333	704.603	NaN
704.582	4	rest.jpg	NaN	NaN	704.582	708.315	708.582	NaN	704.582	708.315	708.582	NaN
708.563	4	rest.jpg	NaN	NaN	708.563	712.296	712.563	NaN	708.563	712.296	712.563	NaN
712.571	4	Aircraft2_10%_41.jpg	1	0.1	712.571	716.303	713.683	1	712.571	716.303	713.683	1
716.589	4	Aircraft1_10%_22.jpg	0	0.1	716.589	720.326	717.362	0	716.589	720.326	717.362	0
720.613	4	Aircraft1_10%_44.jpg	0	0.1	720.613	724.351	721.359	0	720.613	724.351	721.359	0
724.642	4	Aircraft1_10%_1.jpg	0	0.1	724.642	728.374	725.499	0	724.642	728.374	725.499	0
728.644	4	Aircraft2_10%_37.jpg	1	0.1	728.644	732.375	730.281	1	728.644	732.375	730.281	1
732.664	4	rest.jpg	NaN	NaN	732.664	736.401	736.664	NaN	732.664	736.401	736.664	NaN
736.634	4	rest.jpg	NaN	NaN	736.634	740.364	740.634	NaN	736.634	740.364	740.634	NaN
740.614	4	rest.jpg	NaN	NaN	740.614	744.35	744.614	NaN	740.614	744.35	744.614	NaN
744.619	4	Aircraft2_90%_31.jpg	1	0.9	744.619	748.349	745.938	1	744.619	748.349	745.938	1
748.617	4	Aircraft1_90%_4.jpg	0	0.9	748.617	752.349	749.544	0	748.617	752.349	749.544	0
752.617	4	Aircraft2_90%_20.jpg	1	0.9	752.617	756.351	754.084	1	752.617	756.351	754.084	1
756.617	4	Aircraft1_90%_7.jpg	0	0.9	756.617	760.348	758.468	0	756.617	760.348	758.468	0
760.614	4	Aircraft1_90%_8.jpg	0	0.9	760.614	764.352	761.324	0	760.614	764.352	761.324	0
764.637	4	rest.jpg	NaN	NaN	764.637	768.373	768.637	NaN	764.637	768.373	768.637	NaN
768.61	4	rest.jpg	NaN	NaN	768.61	772.342	772.61	NaN	768.61	772.342	772.61	NaN
772.587	4	rest.jpg	NaN	NaN	772.587	776.319	776.587	NaN	772.587	776.319	776.587	NaN
776.607	4	Aircraft2_70%_14.jpg	1	0.75	776.607	780.337	777.819	1	776.607	780.337	777.819	1
780.611	4	Aircraft2_70%_5.jpg	1	0.75	780.611	784.343	782.156	1	780.611	784.343	782.156	1
784.617	4	Aircraft2_70%_15.jpg	1	0.75	784.617	788.353	785.62	1	784.617	788.353	785.62	1
788.636	4	Aircraft2_70%_19.jpg	1	0.75	788.636	792.367	789.396	1	788.636	792.367	789.396	1
792.656	4	Aircraft1_70%_31.jpg	0	0.75	792.656	796.392	793.764	0	792.656	796.392	793.764	0
796.675	4	rest.jpg	NaN	NaN	796.675	800.41	800.675	NaN	796.675	800.41	800.675	NaN
800.644	4	rest.jpg	NaN	NaN	800.644	804.376	804.644	NaN	800.644	804.376	804.644	NaN
804.621	4	rest.jpg	NaN	NaN	804.621	808.353	808.621	NaN	804.621	808.353	808.621	NaN
808.629	4	Aircraft2_10%_9.jpg	1	0.1	808.629	812.359	809.8	1	808.629	812.359	809.8	1
812.644	4	Aircraft2_10%_6.jpg	1	0.1	812.644	816.382	813.553	1	812.644	816.382	813.553	1
816.658	4	Aircraft1_10%_23.jpg	0	0.1	816.658	820.388	817.432	0	816.658	820.388	817.432	0
820.664	4	Aircraft1_10%_21.jpg	0	0.1	820.664	824.396	821.557	0	820.664	824.396	821.557	0
824.682	4	Aircraft2_10%_36.jpg	1	0.1	824.682	828.418	826.244	1	824.682	828.418	826.244	1
828.707	4	rest.jpg	NaN	NaN	828.707	832.443	832.707	NaN	828.707	832.443	832.707	NaN
832.692	4	rest.jpg	NaN	NaN	832.692	836.429	836.692	NaN	832.692	836.429	836.692	NaN
836.663	4	rest.jpg	NaN	NaN	836.663	840.393	840.663	NaN	836.663	840.393	840.663	NaN
840.679	4	Aircraft2_90%_24.jpg	1	0.9	840.679	844.409	841.795	1	840.679	844.409	841.795	1
844.691	4	Aircraft2_90%_2.jpg	1	0.9	844.691	848.423	846.234	1	844.691	848.423	846.234	1
848.709	4	Aircraft2_90%_43.jpg	1	0.9	848.709	852.444	849.435	1	848.709	852.444	849.435	1
852.712	4	Aircraft2_90%_46.jpg	1	0.9	852.712	856.447	853.635	1	852.712	856.447	853.635	1
856.731	4	Aircraft1_90%_42.jpg	0	0.9	856.731	860.462	858.339	0	856.731	860.462	858.339	0
860.732	4	rest.jpg	NaN	NaN	860.732	864.461	864.732	NaN	860.732	864.461	864.732	NaN
864.707	4	rest.jpg	NaN	NaN	864.707	868.44	868.707	NaN	864.707	868.44	868.707	NaN
868.688	4	rest.jpg	NaN	NaN	868.688	872.418	872.688	NaN	868.688	872.418	872.688	NaN
872.703	4	Aircraft1_70%_3.jpg	0	0.75	872.703	876.433	873.835	0	872.703	876.433	873.835	0
876.707	4	Aircraft2_70%_28.jpg	1	0.75	876.707	880.444	877.454	1	876.707	880.444	877.454	1
880.717	4	Aircraft1_70%_24.jpg	0	0.75	880.717	884.449	881.839	0	880.717	884.449	881.839	0
884.722	4	Aircraft2_70%_39.jpg	1	0.75	884.722	888.454	886.782	1	884.722	888.454	886.782	1
888.729	4	Aircraft2_70%_8.jpg	1	0.75	888.729	892.462	890.124	1	888.729	892.462	890.124	1
892.748	4	rest.jpg	NaN	NaN	892.748	896.483	896.748	NaN	892.748	896.483	896.748	NaN
896.733	4	rest.jpg	NaN	NaN	896.733	900.464	900.733	NaN	896.733	900.464	900.733	NaN
900.708	4	rest.jpg	NaN	NaN	900.708	904.438	904.708	NaN	900.708	904.438	904.708	NaN
904.708	4	Aircraft1_10%_12.jpg	0	0.1	904.708	908.441	905.512	0	904.708	908.441	905.512	0
908.716	4	Aircraft2_10%_32.jpg	1	0.1	908.716	912.451	909.577	1	908.716	912.451	909.577	1
912.741	4	Aircraft2_10%_48.jpg	1	0.1	912.741	916.474	913.57	1	912.741	916.474	913.57	1
916.761	4	Aircraft1_10%_19.jpg	0	0.1	916.761	920.493	917.414	0	916.761	920.493	917.414	0
920.779	4	Aircraft1_10%_33.jpg	0	0.1	920.779	924.512	922.111	0	920.779	924.512	922.111	0
924.782	4	rest.jpg	NaN	NaN	924.782	928.518	928.782	NaN	924.782	928.518	928.782	NaN
928.752	4	rest.jpg	NaN	NaN	928.752	932.483	932.752	NaN	928.752	932.483	932.752	NaN
932.731	4	rest.jpg	NaN	NaN	932.731	936.463	936.731	NaN	932.731	936.463	936.731	NaN
936.741	4	Aircraft1_90%_17.jpg	0	0.9	936.741	940.476	937.731	0	936.741	940.476	937.731	0
940.745	4	Aircraft2_90%_42.jpg	1	0.9	940.745	944.475	941.711	1	940.745	944.475	941.711	1
944.743	4	Aircraft2_90%_44.jpg	1	0.9	944.743	948.473	945.411	1	944.743	948.473	945.411	1
948.76	4	Aircraft1_90%_10.jpg	0	0.9	948.76	952.491	949.982	0	948.76	952.491	949.982	0
952.759	4	Aircraft2_90%_25.jpg	1	0.9	952.759	956.496	953.801	1	952.759	956.496	953.801	1
956.769	4	rest.jpg	NaN	NaN	956.769	960.504	960.769	NaN	956.769	960.504	960.769	NaN
960.738	4	rest.jpg	NaN	NaN	960.738	964.468	964.738	NaN	960.738	964.468	964.738	NaN
964.702	4	rest.jpg	NaN	NaN	964.702	968.439	968.702	NaN	964.702	968.439	968.702	NaN
968.708	4	Aircraft1_70%_25.jpg	0	0.75	968.708	972.443	969.486	0	968.708	972.443	969.486	0
972.73	4	Aircraft2_70%_49.jpg	1	0.75	972.73	976.467	973.561	1	972.73	976.467	973.561	1
976.735	4	Aircraft2_70%_10.jpg	1	0.75	976.735	980.47	978.042	1	976.735	980.47	978.042	1
980.761	4	Aircraft2_70%_12.jpg	1	0.75	980.761	984.499	982.067	1	980.761	984.499	982.067	1
984.772	4	Aircraft2_70%_7.jpg	1	0.75	984.772	988.507	986.17	1	984.772	988.507	986.17	1
988.791	4	rest.jpg	NaN	NaN	988.791	992.524	992.791	NaN	988.791	992.524	992.791	NaN
992.758	4	rest.jpg	NaN	NaN	992.758	996.488	996.758	NaN	992.758	996.488	996.758	NaN
996.723	4	rest.jpg	NaN	NaN	996.723	1000.454	1000.723	NaN	996.723	1000.454	1000.723	NaN
