onset	duration	stim_file	stim_lable	levelOfOcclusion	stim_started	stim_stopped	key_time	key_fix	stim_started_1	stim_stopped_1	key_time_1	key_fix_1
40.012	4	Aircraft1_10%_2.jpg	0	0.1	40.012	43.745	42.206	0	40.012	43.745	42.206	0
44.017	4	Aircraft1_10%_39.jpg	0	0.1	44.017	47.754	46.183	0	44.017	47.754	46.183	0
48.026	4	Aircraft2_10%_26.jpg	1	0.1	48.026	51.761	48.904	1	48.026	51.761	48.904	1
52.05	4	Aircraft1_10%_15.jpg	0	0.1	52.05	55.789	53.113	0	52.05	55.789	53.113	0
56.067	4	Aircraft2_10%_16.jpg	1	0.1	56.067	59.797	56.896	1	56.067	59.797	56.896	1
60.086	4	rest.jpg	NaN	NaN	60.086	63.819	64.086	NaN	60.086	63.819	64.086	NaN
64.07	4	rest.jpg	NaN	NaN	64.07	67.8	68.07	NaN	64.07	67.8	68.07	NaN
68.055	4	rest.jpg	NaN	NaN	68.055	71.785	72.055	NaN	68.055	71.785	72.055	NaN
72.073	4	Aircraft2_90%_14.jpg	1	0.9	72.073	75.803	76.073	1	72.073	75.803	76.073	1
76.093	4	Aircraft2_90%_5.jpg	1	0.9	76.093	79.825	77.104	1	76.093	79.825	77.104	1
80.112	4	Aircraft2_90%_15.jpg	1	0.9	80.112	83.847	82.453	1	80.112	83.847	82.453	1
84.136	4	Aircraft2_90%_19.jpg	1	0.9	84.136	87.872	88.136	1	84.136	87.872	88.136	1
88.16	4	Aircraft1_90%_31.jpg	0	0.9	88.16	91.895	89.425	0	88.16	91.895	89.425	0
92.167	4	rest.jpg	NaN	NaN	92.167	95.9	96.167	NaN	92.167	95.9	96.167	NaN
96.146	4	rest.jpg	NaN	NaN	96.146	99.876	100.146	NaN	96.146	99.876	100.146	NaN
100.13	4	rest.jpg	NaN	NaN	100.13	103.866	104.13	NaN	100.13	103.866	104.13	NaN
104.142	4	Aircraft2_70%_4.jpg	1	0.75	104.142	107.874	107.055	1	104.142	107.874	107.055	1
108.17	4	Aircraft1_70%_43.jpg	0	0.75	108.17	111.902	111.675	0	108.17	111.902	111.675	0
112.199	4	Aircraft1_70%_9.jpg	0	0.75	112.199	115.93	114.039	0	112.199	115.93	114.039	0
116.226	4	Aircraft1_70%_11.jpg	0	0.75	116.226	119.955	120.226	0	116.226	119.955	120.226	0
120.243	4	Aircraft1_70%_50.jpg	0	0.75	120.243	123.976	120.458	0	120.243	123.976	120.458	0
124.251	4	rest.jpg	NaN	NaN	124.251	127.988	128.251	NaN	124.251	127.988	128.251	NaN
128.236	4	rest.jpg	NaN	NaN	128.236	131.969	132.236	NaN	128.236	131.969	132.236	NaN
132.22	4	rest.jpg	NaN	NaN	132.22	135.952	136.22	NaN	132.22	135.952	136.22	NaN
136.237	4	Aircraft1_10%_36.jpg	0	0.1	136.237	139.967	138.366	0	136.237	139.967	138.366	0
140.232	4	Aircraft1_10%_35.jpg	0	0.1	140.232	143.968	140.99	0	140.232	143.968	140.99	0
144.255	4	Aircraft2_10%_3.jpg	1	0.1	144.255	147.988	145.383	1	144.255	147.988	145.383	1
148.277	4	Aircraft1_10%_5.jpg	0	0.1	148.277	152.007	149.235	0	148.277	152.007	149.235	0
152.296	4	Aircraft1_10%_48.jpg	0	0.1	152.296	156.027	153.185	0	152.296	156.027	153.185	0
156.309	4	rest.jpg	NaN	NaN	156.309	160.04	160.309	NaN	156.309	160.04	160.309	NaN
160.295	4	rest.jpg	NaN	NaN	160.295	164.027	164.295	NaN	160.295	164.027	164.295	NaN
164.27	4	rest.jpg	NaN	NaN	164.27	168.002	168.27	NaN	164.27	168.002	168.27	NaN
168.262	4	Aircraft1_90%_3.jpg	0	0.9	168.262	171.995	169.837	0	168.262	171.995	169.837	0
172.275	4	Aircraft2_90%_28.jpg	1	0.9	172.275	176.012	176.275	1	172.275	176.012	176.275	1
176.276	4	Aircraft1_90%_24.jpg	0	0.9	176.276	180.012	179.361	0	176.276	180.012	179.361	0
180.274	4	Aircraft2_90%_39.jpg	1	0.9	180.274	184.004	181.808	1	180.274	184.004	181.808	1
184.267	4	Aircraft2_90%_8.jpg	1	0.9	184.267	188.003	187.492	1	184.267	188.003	187.492	1
188.286	4	rest.jpg	NaN	NaN	188.286	192.02	192.286	NaN	188.286	192.02	192.286	NaN
192.269	4	rest.jpg	NaN	NaN	192.269	196.006	196.269	NaN	192.269	196.006	196.269	NaN
196.251	4	rest.jpg	NaN	NaN	196.251	199.983	200.251	NaN	196.251	199.983	200.251	NaN
200.272	4	Aircraft2_70%_18.jpg	1	0.75	200.272	204.009	204.272	1	200.272	204.009	204.272	1
204.292	4	Aircraft1_70%_29.jpg	0	0.75	204.292	208.024	205.797	0	204.292	208.024	205.797	0
208.291	4	Aircraft2_70%_1.jpg	1	0.75	208.291	212.023	211.798	1	208.291	212.023	211.798	1
212.302	4	Aircraft1_70%_26.jpg	0	0.75	212.302	216.036	214.319	0	212.302	216.036	214.319	0
216.305	4	Aircraft2_70%_34.jpg	1	0.75	216.305	220.042	220.305	1	216.305	220.042	220.305	1
220.324	4	rest.jpg	NaN	NaN	220.324	224.06	224.324	NaN	220.324	224.06	224.324	NaN
224.291	4	rest.jpg	NaN	NaN	224.291	228.029	228.291	NaN	224.291	228.029	228.291	NaN
228.278	4	rest.jpg	NaN	NaN	228.278	232.011	232.278	NaN	228.278	232.011	232.278	NaN
232.276	4	Aircraft2_10%_17.jpg	1	0.1	232.276	236.013	233.547	1	232.276	236.013	233.547	1
236.282	4	Aircraft2_10%_11.jpg	1	0.1	236.282	240.019	237.748	1	236.282	240.019	237.748	1
240.288	4	Aircraft1_10%_20.jpg	0	0.1	240.288	244.02	241.188	0	240.288	244.02	241.188	0
244.306	4	Aircraft2_10%_47.jpg	1	0.1	244.306	248.041	245.899	1	244.306	248.041	245.899	1
248.325	4	Aircraft2_10%_45.jpg	1	0.1	248.325	252.06	249.437	1	248.325	252.06	249.437	1
252.324	4	rest.jpg	NaN	NaN	252.324	256.054	256.324	NaN	252.324	256.054	256.324	NaN
256.284	4	rest.jpg	NaN	NaN	256.284	260.014	260.284	NaN	256.284	260.014	260.284	NaN
260.245	4	rest.jpg	NaN	NaN	260.245	263.98	264.245	NaN	260.245	263.98	264.245	NaN
264.259	4	Aircraft1_90%_25.jpg	0	0.9	264.259	267.991	265.805	0	264.259	267.991	265.805	0
268.272	4	Aircraft2_90%_49.jpg	1	0.9	268.272	272.008	272.272	1	268.272	272.008	272.272	1
272.289	4	Aircraft2_90%_10.jpg	1	0.9	272.289	276.021	272.495	1	272.289	276.021	272.495	1
276.282	4	Aircraft2_90%_12.jpg	1	0.9	276.282	280.014	280.282	1	276.282	280.014	280.282	1
280.278	4	Aircraft2_90%_7.jpg	1	0.9	280.278	284.01	282.071	1	280.278	284.01	282.071	1
284.278	4	rest.jpg	NaN	NaN	284.278	288.014	288.278	NaN	284.278	288.014	288.278	NaN
288.247	4	rest.jpg	NaN	NaN	288.247	291.982	292.247	NaN	288.247	291.982	292.247	NaN
292.213	4	rest.jpg	NaN	NaN	292.213	295.943	296.213	NaN	292.213	295.943	296.213	NaN
296.226	4	Aircraft1_70%_32.jpg	0	0.75	296.226	299.958	297.318	0	296.226	299.958	297.318	0
300.224	4	Aircraft1_70%_49.jpg	0	0.75	300.224	303.956	302.127	0	300.224	303.956	302.127	0
304.239	4	Aircraft2_70%_22.jpg	1	0.75	304.239	307.975	306.276	1	304.239	307.975	306.276	1
308.26	4	Aircraft1_70%_34.jpg	0	0.75	308.26	311.991	311.017	0	308.26	311.991	311.017	0
312.278	4	Aircraft1_70%_14.jpg	0	0.75	312.278	316.008	315.727	0	312.278	316.008	315.727	0
316.292	4	rest.jpg	NaN	NaN	316.292	320.022	320.292	NaN	316.292	320.022	320.292	NaN
320.253	4	rest.jpg	NaN	NaN	320.253	323.982	324.253	NaN	320.253	323.982	324.253	NaN
324.226	4	rest.jpg	NaN	NaN	324.226	327.958	328.226	NaN	324.226	327.958	328.226	NaN
328.225	4	Aircraft1_10%_1.jpg	0	0.1	328.225	331.962	330.058	0	328.225	331.962	330.058	0
332.24	4	Aircraft1_10%_47.jpg	0	0.1	332.24	335.97	333.979	0	332.24	335.97	333.979	0
336.258	4	Aircraft1_10%_40.jpg	0	0.1	336.258	339.993	337.779	0	336.258	339.993	337.779	0
340.283	4	Aircraft1_10%_27.jpg	0	0.1	340.283	344.017	341.677	0	340.283	344.017	341.677	0
344.283	4	Aircraft2_10%_35.jpg	1	0.1	344.283	348.015	345.882	1	344.283	348.015	345.882	1
348.279	4	rest.jpg	NaN	NaN	348.279	352.012	352.279	NaN	348.279	352.012	352.279	NaN
352.263	4	rest.jpg	NaN	NaN	352.263	355.993	356.263	NaN	352.263	355.993	356.263	NaN
356.225	4	rest.jpg	NaN	NaN	356.225	359.957	360.225	NaN	356.225	359.957	360.225	NaN
360.238	4	Aircraft1_90%_32.jpg	0	0.9	360.238	363.968	362.056	0	360.238	363.968	362.056	0
364.241	4	Aircraft1_90%_49.jpg	0	0.9	364.241	367.978	366.889	0	364.241	367.978	366.889	0
368.26	4	Aircraft2_90%_22.jpg	1	0.9	368.26	371.992	371.426	1	368.26	371.992	371.426	1
372.27	4	Aircraft1_90%_34.jpg	0	0.9	372.27	376.002	373.934	0	372.27	376.002	373.934	0
376.284	4	Aircraft1_90%_14.jpg	0	0.9	376.284	380.016	379.795	0	376.284	380.016	379.795	0
380.292	4	rest.jpg	NaN	NaN	380.292	384.025	384.292	NaN	380.292	384.025	384.292	NaN
384.273	4	rest.jpg	NaN	NaN	384.273	388.003	388.273	NaN	384.273	388.003	388.273	NaN
388.236	4	rest.jpg	NaN	NaN	388.236	391.971	392.236	NaN	388.236	391.971	392.236	NaN
392.253	4	Aircraft2_70%_24.jpg	1	0.75	392.253	395.983	393.662	1	392.253	395.983	393.662	1
396.261	4	Aircraft2_70%_2.jpg	1	0.75	396.261	399.991	399.28	1	396.261	399.991	399.28	1
400.273	4	Aircraft2_70%_43.jpg	1	0.75	400.273	404.003	401.782	1	400.273	404.003	401.782	1
404.289	4	Aircraft2_70%_46.jpg	1	0.75	404.289	408.025	406.963	1	404.289	408.025	406.963	1
408.292	4	Aircraft1_70%_42.jpg	0	0.75	408.292	412.028	410.274	0	408.292	412.028	410.274	0
412.306	4	rest.jpg	NaN	NaN	412.306	416.039	416.306	NaN	412.306	416.039	416.306	NaN
416.271	4	rest.jpg	NaN	NaN	416.271	420.002	420.271	NaN	416.271	420.002	420.271	NaN
420.249	4	rest.jpg	NaN	NaN	420.249	423.979	424.249	NaN	420.249	423.979	424.249	NaN
424.248	4	Aircraft2_10%_30.jpg	1	0.1	424.248	427.983	425.68	1	424.248	427.983	425.68	1
428.262	4	Aircraft2_10%_27.jpg	1	0.1	428.262	431.994	430.461	1	428.262	431.994	430.461	1
432.28	4	Aircraft2_10%_50.jpg	1	0.1	432.28	436.01	434.793	1	432.28	436.01	434.793	1
436.281	4	Aircraft2_10%_29.jpg	1	0.1	436.281	440.02	438.87	1	436.281	440.02	438.87	1
440.307	4	Aircraft1_10%_6.jpg	0	0.1	440.307	444.039	442.889	0	440.307	444.039	442.889	0
444.303	4	rest.jpg	NaN	NaN	444.303	448.039	448.303	NaN	444.303	448.039	448.303	NaN
448.287	4	rest.jpg	NaN	NaN	448.287	452.019	452.287	NaN	448.287	452.019	452.287	NaN
452.251	4	rest.jpg	NaN	NaN	452.251	455.988	456.251	NaN	452.251	455.988	456.251	NaN
456.27	4	Aircraft2_90%_18.jpg	1	0.9	456.27	460.002	460.27	1	456.27	460.002	460.27	1
460.263	4	Aircraft1_90%_29.jpg	0	0.9	460.263	463.998	461.281	0	460.263	463.998	461.281	0
464.275	4	Aircraft2_90%_1.jpg	1	0.9	464.275	468.008	467.849	1	464.275	468.008	467.849	1
468.272	4	Aircraft1_90%_26.jpg	0	0.9	468.272	472.004	469.5	0	468.272	472.004	469.5	0
472.284	4	Aircraft2_90%_34.jpg	1	0.9	472.284	476.016	476.284	1	472.284	476.016	476.284	1
476.291	4	rest.jpg	NaN	NaN	476.291	480.023	480.291	NaN	476.291	480.023	480.291	NaN
480.254	4	rest.jpg	NaN	NaN	480.254	483.991	484.254	NaN	480.254	483.991	484.254	NaN
484.238	4	rest.jpg	NaN	NaN	484.238	487.967	488.238	NaN	484.238	487.967	488.238	NaN
488.254	4	Aircraft1_70%_17.jpg	0	0.75	488.254	491.989	489.457	0	488.254	491.989	489.457	0
492.271	4	Aircraft2_70%_42.jpg	1	0.75	492.271	496.003	493.513	1	492.271	496.003	493.513	1
496.288	4	Aircraft2_70%_44.jpg	1	0.75	496.288	500.018	498.165	1	496.288	500.018	498.165	1
500.295	4	Aircraft1_70%_10.jpg	0	0.75	500.295	504.027	501.956	0	500.295	504.027	501.956	0
504.294	4	Aircraft2_70%_25.jpg	1	0.75	504.294	508.026	506.274	1	504.294	508.026	506.274	1
508.29	4	rest.jpg	NaN	NaN	508.29	512.022	512.29	NaN	508.29	512.022	512.29	NaN
512.254	4	rest.jpg	NaN	NaN	512.254	515.987	516.254	NaN	512.254	515.987	516.254	NaN
516.22	4	rest.jpg	NaN	NaN	516.22	519.953	520.22	NaN	516.22	519.953	520.22	NaN
520.242	4	Aircraft1_10%_38.jpg	0	0.1	520.242	523.977	521.968	0	520.242	523.977	521.968	0
524.247	4	Aircraft2_10%_21.jpg	1	0.1	524.247	527.976	526.388	1	524.247	527.976	526.388	1
528.257	4	Aircraft1_10%_16.jpg	0	0.1	528.257	531.99	530.314	0	528.257	531.99	530.314	0
532.274	4	Aircraft1_10%_46.jpg	0	0.1	532.274	536.006	534.39	0	532.274	536.006	534.39	0
536.289	4	Aircraft2_10%_40.jpg	1	0.1	536.289	540.023	538.566	1	536.289	540.023	538.566	1
540.304	4	rest.jpg	NaN	NaN	540.304	544.039	544.304	NaN	540.304	544.039	544.304	NaN
544.271	4	rest.jpg	NaN	NaN	544.271	548.007	548.271	NaN	544.271	548.007	548.271	NaN
548.239	4	rest.jpg	NaN	NaN	548.239	551.971	552.239	NaN	548.239	551.971	552.239	NaN
552.234	4	Aircraft2_90%_4.jpg	1	0.9	552.234	555.973	553.55	1	552.234	555.973	553.55	1
556.251	4	Aircraft1_90%_43.jpg	0	0.9	556.251	559.983	557.202	0	556.251	559.983	557.202	0
560.243	4	Aircraft1_90%_9.jpg	0	0.9	560.243	563.973	561.814	0	560.243	563.973	561.814	0
564.236	4	Aircraft1_90%_11.jpg	0	0.9	564.236	567.972	567.855	0	564.236	567.972	567.855	0
568.251	4	Aircraft1_90%_50.jpg	0	0.9	568.251	571.982	569.317	0	568.251	571.982	569.317	0
572.262	4	rest.jpg	NaN	NaN	572.262	575.992	576.262	NaN	572.262	575.992	576.262	NaN
576.242	4	rest.jpg	NaN	NaN	576.242	579.978	580.242	NaN	576.242	579.978	580.242	NaN
580.227	4	rest.jpg	NaN	NaN	580.227	583.959	584.227	NaN	580.227	583.959	584.227	NaN
584.247	4	Aircraft1_70%_12.jpg	0	0.75	584.247	587.977	585.492	0	584.247	587.977	585.492	0
588.245	4	Aircraft2_70%_32.jpg	1	0.75	588.245	591.977	589.821	1	588.245	591.977	589.821	1
592.257	4	Aircraft2_70%_48.jpg	1	0.75	592.257	595.988	595.232	1	592.257	595.988	595.232	1
596.277	4	Aircraft1_70%_19.jpg	0	0.75	596.277	600.011	598.052	0	596.277	600.011	598.052	0
600.297	4	Aircraft1_70%_33.jpg	0	0.75	600.297	604.027	604.297	0	600.297	604.027	604.297	0
604.308	4	rest.jpg	NaN	NaN	604.308	608.046	604.428	NaN	604.308	608.046	604.428	NaN
608.278	4	rest.jpg	NaN	NaN	608.278	612.015	612.278	NaN	608.278	612.015	612.278	NaN
612.259	4	rest.jpg	NaN	NaN	612.259	615.995	616.259	NaN	612.259	615.995	616.259	NaN
616.284	4	Aircraft2_10%_23.jpg	1	0.1	616.284	620.019	617.415	1	616.284	620.019	617.415	1
620.301	4	Aircraft1_10%_28.jpg	0	0.1	620.301	624.034	622.345	0	620.301	624.034	622.345	0
624.302	4	Aircraft2_10%_13.jpg	1	0.1	624.302	628.033	626.058	1	624.302	628.033	626.058	1
628.313	4	Aircraft1_10%_45.jpg	0	0.1	628.313	632.049	629.882	0	628.313	632.049	629.882	0
632.334	4	Aircraft1_10%_37.jpg	0	0.1	632.334	636.071	633.41	0	632.334	636.071	633.41	0
636.349	4	rest.jpg	NaN	NaN	636.349	640.081	640.349	NaN	636.349	640.081	640.349	NaN
640.325	4	rest.jpg	NaN	NaN	640.325	644.06	644.325	NaN	640.325	644.06	644.325	NaN
644.292	4	rest.jpg	NaN	NaN	644.292	648.029	648.292	NaN	644.292	648.029	648.292	NaN
648.291	4	Aircraft2_90%_33.jpg	1	0.9	648.291	652.021	650.36	1	648.291	652.021	650.36	1
652.297	4	Aircraft2_90%_38.jpg	1	0.9	652.297	656.028	654.715	1	652.297	656.028	654.715	1
656.312	4	Aircraft1_90%_30.jpg	0	0.9	656.312	660.049	658.291	0	656.312	660.049	658.291	0
660.311	4	Aircraft1_90%_41.jpg	0	0.9	660.311	664.04	664.311	0	660.311	664.04	664.311	0
664.319	4	Aircraft1_90%_18.jpg	0	0.9	664.319	668.051	665.673	0	664.319	668.051	665.673	0
668.315	4	rest.jpg	NaN	NaN	668.315	672.051	672.315	NaN	668.315	672.051	672.315	NaN
672.298	4	rest.jpg	NaN	NaN	672.298	676.034	676.298	NaN	672.298	676.034	676.298	NaN
676.266	4	rest.jpg	NaN	NaN	676.266	679.998	680.266	NaN	676.266	679.998	680.266	NaN
680.287	4	Aircraft2_70%_9.jpg	1	0.75	680.287	684.019	681.598	1	680.287	684.019	681.598	1
684.299	4	Aircraft2_70%_6.jpg	1	0.75	684.299	688.031	686.396	1	684.299	688.031	686.396	1
688.298	4	Aircraft1_70%_23.jpg	0	0.75	688.298	692.029	689.402	0	688.298	692.029	689.402	0
692.314	4	Aircraft1_70%_21.jpg	0	0.75	692.314	696.05	693.72	0	692.314	696.05	693.72	0
696.334	4	Aircraft2_70%_36.jpg	1	0.75	696.334	700.066	697.802	1	696.334	700.066	697.802	1
700.329	4	rest.jpg	NaN	NaN	700.329	704.061	704.329	NaN	700.329	704.061	704.329	NaN
704.308	4	rest.jpg	NaN	NaN	704.308	708.038	708.308	NaN	704.308	708.038	708.308	NaN
708.287	4	rest.jpg	NaN	NaN	708.287	712.023	712.287	NaN	708.287	712.023	712.287	NaN
712.29	4	Aircraft2_10%_41.jpg	1	0.1	712.29	716.026	713.452	1	712.29	716.026	713.452	1
716.294	4	Aircraft1_10%_22.jpg	0	0.1	716.294	720.026	717.419	0	716.294	720.026	717.419	0
720.29	4	Aircraft1_10%_44.jpg	0	0.1	720.29	724.021	721.606	0	720.29	724.021	721.606	0
724.289	4	Aircraft1_10%_1.jpg	0	0.1	724.289	728.019	726.128	0	724.289	728.019	726.128	0
728.302	4	Aircraft2_10%_37.jpg	1	0.1	728.302	732.031	730.331	1	728.302	732.031	730.331	1
732.305	4	rest.jpg	NaN	NaN	732.305	736.035	736.305	NaN	732.305	736.035	736.305	NaN
736.281	4	rest.jpg	NaN	NaN	736.281	740.018	740.281	NaN	736.281	740.018	740.281	NaN
740.265	4	rest.jpg	NaN	NaN	740.265	743.997	744.265	NaN	740.265	743.997	744.265	NaN
744.274	4	Aircraft2_90%_31.jpg	1	0.9	744.274	748.004	747.728	1	744.274	748.004	747.728	1
748.281	4	Aircraft1_90%_4.jpg	0	0.9	748.281	752.011	752.281	0	748.281	752.011	752.281	0
752.287	4	Aircraft2_90%_20.jpg	1	0.9	752.287	756.024	756.287	1	752.287	756.024	756.287	1
756.287	4	Aircraft1_90%_7.jpg	0	0.9	756.287	760.017	757.757	0	756.287	760.017	757.757	0
760.278	4	Aircraft1_90%_8.jpg	0	0.9	760.278	764.015	764.278	0	760.278	764.015	764.278	0
764.298	4	rest.jpg	NaN	NaN	764.298	768.034	768.298	NaN	764.298	768.034	768.298	NaN
768.282	4	rest.jpg	NaN	NaN	768.282	772.019	772.282	NaN	768.282	772.019	772.282	NaN
772.261	4	rest.jpg	NaN	NaN	772.261	775.991	776.261	NaN	772.261	775.991	776.261	NaN
776.276	4	Aircraft2_70%_14.jpg	1	0.75	776.276	780.008	777.438	1	776.276	780.008	777.438	1
780.295	4	Aircraft2_70%_5.jpg	1	0.75	780.295	784.028	784.295	1	780.295	784.028	784.295	1
784.314	4	Aircraft2_70%_15.jpg	1	0.75	784.314	788.044	784.315	1	784.314	788.044	784.315	1
788.326	4	Aircraft2_70%_19.jpg	1	0.75	788.326	792.063	790.605	1	788.326	792.063	790.605	1
792.33	4	Aircraft1_70%_31.jpg	0	0.75	792.33	796.062	793.639	0	792.33	796.062	793.639	0
796.342	4	rest.jpg	NaN	NaN	796.342	800.076	800.342	NaN	796.342	800.076	800.342	NaN
800.306	4	rest.jpg	NaN	NaN	800.306	804.036	804.306	NaN	800.306	804.036	804.306	NaN
804.266	4	rest.jpg	NaN	NaN	804.266	807.995	808.266	NaN	804.266	807.995	808.266	NaN
808.262	4	Aircraft2_10%_9.jpg	1	0.1	808.262	811.998	810.143	1	808.262	811.998	810.143	1
812.28	4	Aircraft2_10%_6.jpg	1	0.1	812.28	816.013	814.45	1	812.28	816.013	814.45	1
816.299	4	Aircraft1_10%_23.jpg	0	0.1	816.299	820.03	818.283	0	816.299	820.03	818.283	0
820.316	4	Aircraft1_10%_21.jpg	0	0.1	820.316	824.048	822.238	0	820.316	824.048	822.238	0
824.329	4	Aircraft2_10%_36.jpg	1	0.1	824.329	828.061	828.329	1	824.329	828.061	828.329	1
828.342	4	rest.jpg	NaN	NaN	828.342	832.071	832.342	NaN	828.342	832.071	832.342	NaN
832.316	4	rest.jpg	NaN	NaN	832.316	836.049	836.316	NaN	832.316	836.049	836.316	NaN
836.298	4	rest.jpg	NaN	NaN	836.298	840.028	840.298	NaN	836.298	840.028	840.298	NaN
840.291	4	Aircraft2_90%_24.jpg	1	0.9	840.291	844.025	844.291	1	840.291	844.025	844.291	1
844.307	4	Aircraft2_90%_2.jpg	1	0.9	844.307	848.038	847.542	1	844.307	848.038	847.542	1
848.315	4	Aircraft2_90%_43.jpg	1	0.9	848.315	852.047	852.315	1	848.315	852.047	852.315	1
852.309	4	Aircraft2_90%_46.jpg	1	0.9	852.309	856.039	855.338	1	852.309	856.039	855.338	1
856.3	4	Aircraft1_90%_42.jpg	0	0.9	856.3	860.033	859.157	0	856.3	860.033	859.157	0
860.311	4	rest.jpg	NaN	NaN	860.311	864.044	864.311	NaN	860.311	864.044	864.311	NaN
864.294	4	rest.jpg	NaN	NaN	864.294	868.03	868.294	NaN	864.294	868.03	868.294	NaN
868.28	4	rest.jpg	NaN	NaN	868.28	872.017	872.28	NaN	868.28	872.017	872.28	NaN
872.282	4	Aircraft1_70%_3.jpg	0	0.75	872.282	876.014	873.537	0	872.282	876.014	873.537	0
876.297	4	Aircraft2_70%_28.jpg	1	0.75	876.297	880.033	877.826	1	876.297	880.033	877.826	1
880.317	4	Aircraft1_70%_24.jpg	0	0.75	880.317	884.049	882.145	0	880.317	884.049	882.145	0
884.333	4	Aircraft2_70%_39.jpg	1	0.75	884.333	888.068	886.104	1	884.333	888.068	886.104	1
888.353	4	Aircraft2_70%_8.jpg	1	0.75	888.353	892.083	891.442	1	888.353	892.083	891.442	1
892.367	4	rest.jpg	NaN	NaN	892.367	896.1	896.367	NaN	892.367	896.1	896.367	NaN
896.333	4	rest.jpg	NaN	NaN	896.333	900.07	900.333	NaN	896.333	900.07	900.333	NaN
900.302	4	rest.jpg	NaN	NaN	900.302	904.039	904.302	NaN	900.302	904.039	904.302	NaN
904.321	4	Aircraft1_10%_12.jpg	0	0.1	904.321	908.057	906.066	0	904.321	908.057	906.066	0
908.325	4	Aircraft2_10%_32.jpg	1	0.1	908.325	912.057	909.035	1	908.325	912.057	909.035	1
912.345	4	Aircraft2_10%_48.jpg	1	0.1	912.345	916.08	913.258	1	912.345	916.08	913.258	1
916.365	4	Aircraft1_10%_19.jpg	0	0.1	916.365	920.098	917.758	0	916.365	920.098	917.758	0
920.363	4	Aircraft1_10%_33.jpg	0	0.1	920.363	924.101	921.69	0	920.363	924.101	921.69	0
924.383	4	rest.jpg	NaN	NaN	924.383	928.116	928.383	NaN	924.383	928.116	928.383	NaN
928.348	4	rest.jpg	NaN	NaN	928.348	932.082	932.348	NaN	928.348	932.082	932.348	NaN
932.331	4	rest.jpg	NaN	NaN	932.331	936.062	936.331	NaN	932.331	936.062	936.331	NaN
936.321	4	Aircraft1_90%_17.jpg	0	0.9	936.321	940.057	937.435	0	936.321	940.057	937.435	0
940.316	4	Aircraft2_90%_42.jpg	1	0.9	940.316	944.052	941.697	1	940.316	944.052	941.697	1
944.311	4	Aircraft2_90%_44.jpg	1	0.9	944.311	948.046	945.542	1	944.311	948.046	945.542	1
948.323	4	Aircraft1_90%_10.jpg	0	0.9	948.323	952.059	952.323	0	948.323	952.059	952.323	0
952.321	4	Aircraft2_90%_25.jpg	1	0.9	952.321	956.053	953.764	1	952.321	956.053	953.764	1
956.335	4	rest.jpg	NaN	NaN	956.335	960.07	960.335	NaN	956.335	960.07	960.335	NaN
960.322	4	rest.jpg	NaN	NaN	960.322	964.052	964.322	NaN	960.322	964.052	964.322	NaN
964.301	4	rest.jpg	NaN	NaN	964.301	968.031	968.301	NaN	964.301	968.031	968.301	NaN
968.292	4	Aircraft1_70%_25.jpg	0	0.75	968.292	972.029	969.18	0	968.292	972.029	969.18	0
972.289	4	Aircraft2_70%_49.jpg	1	0.75	972.289	976.021	973.263	1	972.289	976.021	973.263	1
976.303	4	Aircraft2_70%_10.jpg	1	0.75	976.303	980.035	977.804	1	976.303	980.035	977.804	1
980.302	4	Aircraft2_70%_12.jpg	1	0.75	980.302	984.037	981.618	1	980.302	984.037	981.618	1
984.323	4	Aircraft2_70%_7.jpg	1	0.75	984.323	988.055	988.323	1	984.323	988.055	988.323	1
988.32	4	rest.jpg	NaN	NaN	988.32	992.051	992.32	NaN	988.32	992.051	992.32	NaN
992.3	4	rest.jpg	NaN	NaN	992.3	996.037	996.3	NaN	992.3	996.037	996.3	NaN
996.27	4	rest.jpg	NaN	NaN	996.27	1000.006	1000.27	NaN	996.27	1000.006	1000.27	NaN
