sub	run	block	trail	oneset	duration	stim_file	stim_lable	level of occlusion	stim_started	stim_stopped	key_time	key_fix
54	2	1	1	40.019	4	Aircraft1_10%_17.jpg	0	0.1	40.019	43.748	42.175	0
54	2	1	2	44.022	4	Aircraft2_10%_42.jpg	1	0.1	44.022	47.758	46.301	1
54	2	1	3	48.043	4	Aircraft2_10%_44.jpg	1	0.1	48.043	51.774	50.142	1
54	2	1	4	52.095	4	Aircraft1_10%_10.jpg	0	0.1	52.095	55.826	54.027	0
54	2	1	5	56.114	4	Aircraft2_10%_25.jpg	1	0.1	56.114	59.843	58.711	1
54	2	1	6	60.136	4	rest.jpg	n/a	n/a	60.136	63.873	64.136	n/a
54	2	1	7	64.108	4	rest.jpg	n/a	n/a	64.108	67.839	68.108	n/a
54	2	1	8	68.093	4	rest.jpg	n/a	n/a	68.093	71.824	72.093	n/a
54	2	2	9	72.105	4	Aircraft1_90%_12.jpg	0	0.9	72.105	75.839	75.103	0
54	2	2	10	76.145	4	Aircraft2_90%_32.jpg	1	0.9	76.145	79.878	79.029	1
54	2	2	11	80.16	4	Aircraft2_90%_48.jpg	1	0.9	80.16	83.89	83.72	1
54	2	2	12	84.174	4	Aircraft1_90%_19.jpg	0	0.9	84.174	87.903	87.098	0
54	2	2	13	88.208	4	Aircraft1_90%_33.jpg	0	0.9	88.208	91.943	90.74	0
54	2	2	14	92.228	4	rest.jpg	n/a	n/a	92.228	95.959	96.228	n/a
54	2	2	15	96.192	4	rest.jpg	n/a	n/a	96.192	99.928	100.192	n/a
54	2	2	16	100.178	4	rest.jpg	n/a	n/a	100.178	103.908	104.178	n/a
54	2	3	17	104.172	4	Aircraft2_70%_33.jpg	1	0.75	104.172	107.901	107.685	1
54	2	3	18	108.222	4	Aircraft2_70%_38.jpg	1	0.75	108.222	111.956	109.322	1
54	2	3	19	112.226	4	Aircraft1_70%_30.jpg	0	0.75	112.226	115.96	115.249	0
54	2	3	20	116.228	4	Aircraft1_70%_41.jpg	0	0.75	116.228	119.963	120.228	0
54	2	3	21	120.268	4	Aircraft1_70%_18.jpg	0	0.75	120.268	123.999	123.149	0
54	2	3	22	124.263	4	rest.jpg	n/a	n/a	124.263	127.999	128.263	n/a
54	2	3	23	128.247	4	rest.jpg	n/a	n/a	128.247	131.977	132.247	n/a
54	2	3	24	132.23	4	rest.jpg	n/a	n/a	132.23	135.962	136.23	n/a
54	2	4	25	136.233	4	Aircraft2_10%_24.jpg	1	0.1	136.233	139.967	139.183	1
54	2	4	26	140.259	4	Aircraft2_10%_2.jpg	1	0.1	140.259	143.993	143.413	1
54	2	4	27	144.272	4	Aircraft2_10%_43.jpg	1	0.1	144.272	148.006	147.653	1
54	2	4	28	148.313	4	Aircraft2_10%_46.jpg	1	0.1	148.313	152.043	151.274	1
54	2	4	29	152.344	4	Aircraft1_10%_42.jpg	0	0.1	152.344	156.078	155.366	0
54	2	4	30	156.361	4	rest.jpg	n/a	n/a	156.361	160.095	160.361	n/a
54	2	4	31	160.348	4	rest.jpg	n/a	n/a	160.348	164.079	164.348	n/a
54	2	4	32	164.328	4	rest.jpg	n/a	n/a	164.328	168.059	168.328	n/a
54	2	5	33	168.334	4	Aircraft2_90%_9.jpg	1	0.9	168.334	172.063	172.334	1
54	2	5	34	172.337	4	Aircraft2_90%_6.jpg	1	0.9	172.337	176.072	175.801	1
54	2	5	35	176.346	4	Aircraft1_90%_23.jpg	0	0.9	176.346	180.08	179.499	0
54	2	5	36	180.394	4	Aircraft1_90%_21.jpg	0	0.9	180.394	184.126	182.491	0
54	2	5	37	184.387	4	Aircraft2_90%_36.jpg	1	0.9	184.387	188.121	188.387	1
54	2	5	38	188.385	4	rest.jpg	n/a	n/a	188.385	192.114	192.385	n/a
54	2	5	39	192.361	4	rest.jpg	n/a	n/a	192.361	196.095	196.361	n/a
54	2	5	40	196.327	4	rest.jpg	n/a	n/a	196.327	200.059	200.327	n/a
54	2	6	41	200.339	4	Aircraft2_70%_31.jpg	1	0.75	200.339	204.074	203.807	1
54	2	6	42	204.359	4	Aircraft1_70%_4.jpg	0	0.75	204.359	208.09	207.748	0
54	2	6	43	208.42	4	Aircraft2_70%_20.jpg	1	0.75	208.42	212.155	211.317	1
54	2	6	44	212.43	4	Aircraft1_70%_7.jpg	0	0.75	212.43	216.159	214.967	0
54	2	6	45	216.472	4	Aircraft1_70%_8.jpg	0	0.75	216.472	220.203	220.472	0
54	2	6	46	220.497	4	rest.jpg	n/a	n/a	220.497	224.228	224.497	n/a
54	2	6	47	224.46	4	rest.jpg	n/a	n/a	224.46	228.195	228.46	n/a
54	2	6	48	228.444	4	rest.jpg	n/a	n/a	228.444	232.175	232.444	n/a
54	2	7	49	232.464	4	Aircraft2_10%_31.jpg	1	0.1	232.464	236.198	235.567	1
54	2	7	50	236.493	4	Aircraft1_10%_4.jpg	0	0.1	236.493	240.227	239.41	0
54	2	7	51	240.498	4	Aircraft2_10%_20.jpg	1	0.1	240.498	244.229	243.756	1
54	2	7	52	244.541	4	Aircraft1_10%_7.jpg	0	0.1	244.541	248.276	247.59	0
54	2	7	53	248.565	4	Aircraft1_10%_8.jpg	0	0.1	248.565	252.302	251.381	0
54	2	7	54	252.586	4	rest.jpg	n/a	n/a	252.586	256.315	256.586	n/a
54	2	7	55	256.561	4	rest.jpg	n/a	n/a	256.561	260.289	260.561	n/a
54	2	7	56	260.538	4	rest.jpg	n/a	n/a	260.538	264.267	264.538	n/a
54	2	8	57	264.546	4	Aircraft2_90%_41.jpg	1	0.9	264.546	268.28	268.546	1
54	2	8	58	268.564	4	Aircraft1_90%_22.jpg	0	0.9	268.564	272.3	272.062	0
54	2	8	59	272.583	4	Aircraft1_90%_44.jpg	0	0.9	272.583	276.319	275.587	0
54	2	8	60	276.604	4	Aircraft1_90%_1.jpg	0	0.9	276.604	280.34	280.604	0
54	2	8	61	280.655	4	Aircraft2_90%_37.jpg	1	0.9	280.655	284.386	280.781	1
54	2	8	62	284.657	4	rest.jpg	n/a	n/a	284.657	288.393	288.657	n/a
54	2	8	63	288.627	4	rest.jpg	n/a	n/a	288.627	292.36	292.627	n/a
54	2	8	64	292.594	4	rest.jpg	n/a	n/a	292.594	296.327	296.594	n/a
54	2	9	65	296.6	4	Aircraft2_70%_41.jpg	1	0.75	296.6	300.334	300.6	1
54	2	9	66	300.607	4	Aircraft1_70%_22.jpg	0	0.75	300.607	304.338	300.666	0
54	2	9	67	304.66	4	Aircraft1_70%_44.jpg	0	0.75	304.66	308.389	306.206	0
54	2	9	68	308.703	4	Aircraft1_70%_1.jpg	0	0.75	308.703	312.432	311.034	0
54	2	9	69	312.706	4	Aircraft2_70%_37.jpg	1	0.75	312.706	316.442	315.459	1
54	2	9	70	316.725	4	rest.jpg	n/a	n/a	316.725	320.454	320.725	n/a
54	2	9	71	320.697	4	rest.jpg	n/a	n/a	320.697	324.428	324.697	n/a
54	2	9	72	324.677	4	rest.jpg	n/a	n/a	324.677	328.408	328.677	n/a
54	2	10	73	328.684	4	Aircraft2_10%_33.jpg	1	0.1	328.684	332.414	331.523	1
54	2	10	74	332.719	4	Aircraft2_10%_38.jpg	1	0.1	332.719	336.453	335.089	1
54	2	10	75	336.76	4	Aircraft1_10%_30.jpg	0	0.1	336.76	340.494	338.664	0
54	2	10	76	340.98	4	Aircraft1_10%_41.jpg	0	0.1	340.98	344.716	343.143	0
54	2	10	77	345.004	4	Aircraft1_10%_18.jpg	0	0.1	345.004	348.733	347.439	0
54	2	10	78	349.003	4	rest.jpg	n/a	n/a	349.003	352.735	353.003	n/a
54	2	10	79	352.98	4	rest.jpg	n/a	n/a	352.98	356.714	356.98	n/a
54	2	10	80	356.966	4	rest.jpg	n/a	n/a	356.966	360.701	360.966	n/a
54	2	11	81	360.983	4	Aircraft2_90%_23.jpg	1	0.9	360.983	364.714	364.041	1
54	2	11	82	365.007	4	Aircraft1_90%_28.jpg	0	0.9	365.007	368.742	368.57	0
54	2	11	83	369.035	4	Aircraft2_90%_13.jpg	1	0.9	369.035	372.764	373.035	1
54	2	11	84	373.045	4	Aircraft1_90%_45.jpg	0	0.9	373.045	376.774	375.388	0
54	2	11	85	377.058	4	Aircraft1_90%_37.jpg	0	0.9	377.058	380.793	380.067	0
54	2	11	86	381.083	4	rest.jpg	n/a	n/a	381.083	384.818	385.083	n/a
54	2	11	87	385.066	4	rest.jpg	n/a	n/a	385.066	388.795	389.066	n/a
54	2	11	88	389.04	4	rest.jpg	n/a	n/a	389.04	392.773	393.04	n/a
54	2	12	89	393.046	4	Aircraft1_70%_2.jpg	0	0.75	393.046	396.782	396.15	0
54	2	12	90	397.074	4	Aircraft1_70%_39.jpg	0	0.75	397.074	400.809	400.276	0
54	2	12	91	401.116	4	Aircraft2_70%_26.jpg	1	0.75	401.116	404.844	403.798	1
54	2	12	92	405.117	4	Aircraft1_70%_15.jpg	0	0.75	405.117	408.846	409.117	0
54	2	12	93	409.134	4	Aircraft2_70%_16.jpg	1	0.75	409.134	412.87	411.43	1
54	2	12	94	413.16	4	rest.jpg	n/a	n/a	413.16	416.892	417.16	n/a
54	2	12	95	417.141	4	rest.jpg	n/a	n/a	417.141	420.872	421.141	n/a
54	2	12	96	421.122	4	rest.jpg	n/a	n/a	421.122	424.857	425.122	n/a
54	2	13	97	425.145	4	Aircraft2_10%_4.jpg	1	0.1	425.145	428.875	427.486	1
54	2	13	98	429.162	4	Aircraft1_10%_43.jpg	0	0.1	429.162	432.896	431.377	0
54	2	13	99	433.209	4	Aircraft1_10%_9.jpg	0	0.1	433.209	436.938	436.372	0
54	2	13	100	437.256	4	Aircraft1_10%_11.jpg	0	0.1	437.256	440.984	440.207	0
54	2	13	101	441.253	4	Aircraft1_10%_50.jpg	0	0.1	441.253	444.989	445.253	0
54	2	13	102	445.276	4	rest.jpg	n/a	n/a	445.276	449.006	445.401	n/a
54	2	13	103	449.238	4	rest.jpg	n/a	n/a	449.238	452.972	453.238	n/a
54	2	13	104	453.22	4	rest.jpg	n/a	n/a	453.22	456.956	457.22	n/a
54	2	14	105	457.246	4	Aircraft1_90%_38.jpg	0	0.9	457.246	460.982	459.984	0
54	2	14	106	461.313	4	Aircraft2_90%_21.jpg	1	0.9	461.313	465.047	464.281	1
54	2	14	107	465.338	4	Aircraft1_90%_16.jpg	0	0.9	465.338	469.074	468.691	0
54	2	14	108	469.356	4	Aircraft1_90%_46.jpg	0	0.9	469.356	473.093	471.088	0
54	2	14	109	473.372	4	Aircraft2_90%_40.jpg	1	0.9	473.372	477.105	474.849	1
54	2	14	110	477.377	4	rest.jpg	n/a	n/a	477.377	481.11	481.377	n/a
54	2	14	111	481.357	4	rest.jpg	n/a	n/a	481.357	485.086	485.357	n/a
54	2	14	112	485.318	4	rest.jpg	n/a	n/a	485.318	489.056	489.318	n/a
54	2	15	113	489.325	4	Aircraft1_70%_36.jpg	0	0.75	489.325	493.054	492.239	0
54	2	15	114	493.358	4	Aircraft1_70%_35.jpg	0	0.75	493.358	497.087	495.47	0
54	2	15	115	497.376	4	Aircraft2_70%_3.jpg	1	0.75	497.376	501.107	498.946	1
54	2	15	116	501.513	4	Aircraft1_70%_5.jpg	0	0.75	501.513	505.249	505.123	0
54	2	15	117	505.536	4	Aircraft1_70%_48.jpg	0	0.75	505.536	509.266	507.935	0
54	2	15	118	509.553	4	rest.jpg	n/a	n/a	509.553	513.286	513.553	n/a
54	2	15	119	513.519	4	rest.jpg	n/a	n/a	513.519	517.253	517.519	n/a
54	2	15	120	517.496	4	rest.jpg	n/a	n/a	517.496	521.225	521.496	n/a
54	2	16	121	521.515	4	Aircraft2_10%_18.jpg	1	0.1	521.515	525.244	524.345	1
54	2	16	122	525.571	4	Aircraft1_10%_29.jpg	0	0.1	525.571	529.307	528.861	0
54	2	16	123	529.592	4	Aircraft2_10%_1.jpg	1	0.1	529.592	533.323	533.592	1
54	2	16	124	533.617	4	Aircraft1_10%_26.jpg	0	0.1	533.617	537.348	536.687	0
54	2	16	125	537.661	4	Aircraft2_10%_34.jpg	1	0.1	537.661	541.39	540.07	1
54	2	16	126	541.663	4	rest.jpg	n/a	n/a	541.663	545.398	545.663	n/a
54	2	16	127	545.648	4	rest.jpg	n/a	n/a	545.648	549.376	549.648	n/a
54	2	16	128	549.622	4	rest.jpg	n/a	n/a	549.622	553.351	553.622	n/a
54	2	17	129	553.669	4	Aircraft2_90%_30.jpg	1	0.9	553.669	557.398	557.669	1
54	2	17	130	557.698	4	Aircraft2_90%_27.jpg	1	0.9	557.698	561.433	557.709	1
54	2	17	131	561.715	4	Aircraft2_90%_50.jpg	1	0.9	561.715	565.449	564.86	1
54	2	17	132	565.735	4	Aircraft2_90%_29.jpg	1	0.9	565.735	569.47	568.056	1
54	2	17	133	569.753	4	Aircraft1_90%_6.jpg	0	0.9	569.753	573.482	570.641	0
54	2	17	134	573.752	4	rest.jpg	n/a	n/a	573.752	577.481	577.752	n/a
54	2	17	135	577.715	4	rest.jpg	n/a	n/a	577.715	581.446	581.715	n/a
54	2	17	136	581.694	4	rest.jpg	n/a	n/a	581.694	585.425	585.694	n/a
54	2	18	137	585.723	4	Aircraft2_70%_17.jpg	1	0.75	585.723	589.455	588.771	1
54	2	18	138	589.74	4	Aircraft2_70%_11.jpg	1	0.75	589.74	593.469	592.445	1
54	2	18	139	593.739	4	Aircraft1_70%_20.jpg	0	0.75	593.739	597.471	596.407	0
54	2	18	140	597.755	4	Aircraft2_70%_47.jpg	1	0.75	597.755	601.484	600.571	1
54	2	18	141	601.759	4	Aircraft2_70%_45.jpg	1	0.75	601.759	605.494	604.018	1
54	2	18	142	605.768	4	rest.jpg	n/a	n/a	605.768	609.5	609.768	n/a
54	2	18	143	609.745	4	rest.jpg	n/a	n/a	609.745	613.479	613.745	n/a
54	2	18	144	613.728	4	rest.jpg	n/a	n/a	613.728	617.457	617.728	n/a
54	2	19	145	617.735	4	Aircraft1_10%_32.jpg	0	0.1	617.735	621.469	620	0
54	2	19	146	621.759	4	Aircraft1_10%_49.jpg	0	0.1	621.759	625.495	624.39	0
54	2	19	147	625.814	4	Aircraft2_10%_22.jpg	1	0.1	625.814	629.546	628.412	1
54	2	19	148	629.819	4	Aircraft1_10%_34.jpg	0	0.1	629.819	633.548	632.339	0
54	2	19	149	633.839	4	Aircraft1_10%_14.jpg	0	0.1	633.839	637.575	636.378	0
54	2	19	150	637.86	4	rest.jpg	n/a	n/a	637.86	641.593	641.86	n/a
54	2	19	151	641.83	4	rest.jpg	n/a	n/a	641.83	645.561	645.83	n/a
54	2	19	152	645.806	4	rest.jpg	n/a	n/a	645.806	649.536	649.806	n/a
54	2	20	153	649.803	4	Aircraft1_90%_1.jpg	0	0.9	649.803	653.532	652.766	0
54	2	20	154	653.837	4	Aircraft1_90%_47.jpg	0	0.9	653.837	657.571	657.837	0
54	2	20	155	657.861	4	Aircraft1_90%_40.jpg	0	0.9	657.861	661.597	658.733	0
54	2	20	156	661.864	4	Aircraft1_90%_27.jpg	0	0.9	661.864	665.593	664.4	0
54	2	20	157	665.903	4	Aircraft2_90%_35.jpg	1	0.9	665.903	669.637	666.877	1
54	2	20	158	669.928	4	rest.jpg	n/a	n/a	669.928	673.657	673.928	n/a
54	2	20	159	673.891	4	rest.jpg	n/a	n/a	673.891	677.622	677.891	n/a
54	2	20	160	677.87	4	rest.jpg	n/a	n/a	677.87	681.599	681.87	n/a
54	2	21	161	681.872	4	Aircraft2_70%_23.jpg	1	0.75	681.872	685.607	684.431	1
54	2	21	162	685.894	4	Aircraft1_70%_28.jpg	0	0.75	685.894	689.623	688.369	0
54	2	21	163	689.938	4	Aircraft2_70%_13.jpg	1	0.75	689.938	693.673	691.139	1
54	2	21	164	693.982	4	Aircraft1_70%_45.jpg	0	0.75	693.982	697.713	696.18	0
54	2	21	165	697.987	4	Aircraft1_70%_37.jpg	0	0.75	697.987	701.72	700.959	0
54	2	21	166	701.994	4	rest.jpg	n/a	n/a	701.994	705.732	705.994	n/a
54	2	21	167	705.978	4	rest.jpg	n/a	n/a	705.978	709.713	709.978	n/a
54	2	21	168	709.946	4	rest.jpg	n/a	n/a	709.946	713.678	713.946	n/a
54	2	22	169	713.962	4	Aircraft1_10%_25.jpg	0	0.1	713.962	717.694	715.741	0
54	2	22	170	717.969	4	Aircraft2_10%_49.jpg	1	0.1	717.969	721.701	719.312	1
54	2	22	171	721.991	4	Aircraft2_10%_10.jpg	1	0.1	721.991	725.721	723.791	1
54	2	22	172	726.031	4	Aircraft2_10%_12.jpg	1	0.1	726.031	729.765	726.956	1
54	2	22	173	730.047	4	Aircraft2_10%_7.jpg	1	0.1	730.047	733.784	731.425	1
54	2	22	174	734.055	4	rest.jpg	n/a	n/a	734.055	737.784	738.055	n/a
54	2	22	175	738.016	4	rest.jpg	n/a	n/a	738.016	741.757	742.016	n/a
54	2	22	176	742.005	4	rest.jpg	n/a	n/a	742.005	745.737	746.005	n/a
54	2	23	177	746.004	4	Aircraft2_90%_17.jpg	1	0.9	746.004	749.736	750.004	1
54	2	23	178	750.014	4	Aircraft2_90%_11.jpg	1	0.9	750.014	753.75	753.012	1
54	2	23	179	754.037	4	Aircraft1_90%_20.jpg	0	0.9	754.037	757.775	758.037	0
54	2	23	180	758.063	4	Aircraft2_90%_47.jpg	1	0.9	758.063	761.792	758.976	1
54	2	23	181	762.093	4	Aircraft2_90%_45.jpg	1	0.9	762.093	765.826	766.093	1
54	2	23	182	766.111	4	rest.jpg	n/a	n/a	766.111	769.841	770.111	n/a
54	2	23	183	770.092	4	rest.jpg	n/a	n/a	770.092	773.826	774.092	n/a
54	2	23	184	774.061	4	rest.jpg	n/a	n/a	774.061	777.793	778.061	n/a
54	2	24	185	778.088	4	Aircraft1_70%_38.jpg	0	0.75	778.088	781.822	780.406	0
54	2	24	186	782.114	4	Aircraft2_70%_21.jpg	1	0.75	782.114	785.85	782.901	1
54	2	24	187	786.156	4	Aircraft1_70%_16.jpg	0	0.75	786.156	789.891	789.263	0
54	2	24	188	790.186	4	Aircraft1_70%_46.jpg	0	0.75	790.186	793.921	792.393	0
54	2	24	189	794.22	4	Aircraft2_70%_40.jpg	1	0.75	794.22	797.949	796.669	1
54	2	24	190	798.238	4	rest.jpg	n/a	n/a	798.238	801.974	802.238	n/a
54	2	24	191	802.219	4	rest.jpg	n/a	n/a	802.219	805.954	806.219	n/a
54	2	24	192	806.188	4	rest.jpg	n/a	n/a	806.188	809.919	810.188	n/a
54	2	25	193	810.206	4	Aircraft1_10%_3.jpg	0	0.1	810.206	813.94	812.327	0
54	2	25	194	814.212	4	Aircraft2_10%_28.jpg	1	0.1	814.212	817.949	815.587	1
54	2	25	195	818.246	4	Aircraft1_10%_24.jpg	0	0.1	818.246	821.975	821.019	0
54	2	25	196	822.298	4	Aircraft2_10%_39.jpg	1	0.1	822.298	826.029	823.836	1
54	2	25	197	826.338	4	Aircraft2_10%_8.jpg	1	0.1	826.338	830.069	829.814	1
54	2	25	198	830.34	4	rest.jpg	n/a	n/a	830.34	834.069	834.34	n/a
54	2	25	199	834.316	4	rest.jpg	n/a	n/a	834.316	838.051	838.316	n/a
54	2	25	200	838.299	4	rest.jpg	n/a	n/a	838.299	842.03	842.299	n/a
54	2	26	201	842.337	4	Aircraft1_90%_36.jpg	0	0.9	842.337	846.073	845.55	0
54	2	26	202	846.374	4	Aircraft1_90%_35.jpg	0	0.9	846.374	850.103	847.48	0
54	2	26	203	850.401	4	Aircraft2_90%_3.jpg	1	0.9	850.401	854.133	853.732	1
54	2	26	204	854.426	4	Aircraft1_90%_5.jpg	0	0.9	854.426	858.16	857.367	0
54	2	26	205	858.439	4	Aircraft1_90%_48.jpg	0	0.9	858.439	862.173	862.439	0
54	2	26	206	862.462	4	rest.jpg	n/a	n/a	862.462	866.2	866.462	n/a
54	2	26	207	866.445	4	rest.jpg	n/a	n/a	866.445	870.179	870.445	n/a
54	2	26	208	870.413	4	rest.jpg	n/a	n/a	870.413	874.144	874.413	n/a
54	2	27	209	874.416	4	Aircraft2_70%_30.jpg	1	0.75	874.416	878.147	878.416	1
54	2	27	210	878.424	4	Aircraft2_70%_27.jpg	1	0.75	878.424	882.153	881.84	1
54	2	27	211	882.425	4	Aircraft2_70%_50.jpg	1	0.75	882.425	886.16	885.348	1
54	2	27	212	886.449	4	Aircraft2_70%_29.jpg	1	0.75	886.449	890.184	887.944	1
54	2	27	213	890.472	4	Aircraft1_70%_6.jpg	0	0.75	890.472	894.204	894.472	0
54	2	27	214	894.492	4	rest.jpg	n/a	n/a	894.492	898.223	898.492	n/a
54	2	27	215	898.473	4	rest.jpg	n/a	n/a	898.473	902.208	902.473	n/a
54	2	27	216	902.442	4	rest.jpg	n/a	n/a	902.442	906.174	906.442	n/a
54	2	28	217	906.502	4	Aircraft2_10%_14.jpg	1	0.1	906.502	910.23	908.797	1
54	2	28	218	910.516	4	Aircraft2_10%_5.jpg	1	0.1	910.516	914.248	911.462	1
54	2	28	219	914.569	4	Aircraft2_10%_15.jpg	1	0.1	914.569	918.303	916.516	1
54	2	28	220	918.593	4	Aircraft2_10%_19.jpg	1	0.1	918.593	922.324	920.752	1
54	2	28	221	922.613	4	Aircraft1_10%_31.jpg	0	0.1	922.613	926.35	925.13	0
54	2	28	222	926.633	4	rest.jpg	n/a	n/a	926.633	930.362	930.633	n/a
54	2	28	223	930.596	4	rest.jpg	n/a	n/a	930.596	934.328	934.596	n/a
54	2	28	224	934.574	4	rest.jpg	n/a	n/a	934.574	938.303	938.574	n/a
54	2	29	225	938.625	4	Aircraft1_90%_2.jpg	0	0.9	938.625	942.36	941.897	0
54	2	29	226	942.647	4	Aircraft1_90%_39.jpg	0	0.9	942.647	946.376	946.258	0
54	2	29	227	946.658	4	Aircraft2_90%_26.jpg	1	0.9	946.658	950.387	947.559	1
54	2	29	228	950.671	4	Aircraft1_90%_15.jpg	0	0.9	950.671	954.4	954.026	0
54	2	29	229	954.707	4	Aircraft2_90%_16.jpg	1	0.9	954.707	958.441	958.049	1
54	2	29	230	958.729	4	rest.jpg	n/a	n/a	958.729	962.464	962.729	n/a
54	2	29	231	962.711	4	rest.jpg	n/a	n/a	962.711	966.44	966.711	n/a
54	2	29	232	966.691	4	rest.jpg	n/a	n/a	966.691	970.426	970.691	n/a
54	2	30	233	970.7	4	Aircraft1_70%_1.jpg	0	0.75	970.7	974.431	973.305	0
54	2	30	234	974.717	4	Aircraft1_70%_47.jpg	0	0.75	974.717	978.453	977.617	0
54	2	30	235	978.796	4	Aircraft1_70%_40.jpg	0	0.75	978.796	982.524	980.959	0
54	2	30	236	982.81	4	Aircraft1_70%_27.jpg	0	0.75	982.81	986.544	986.119	0
54	2	30	237	986.831	4	Aircraft2_70%_35.jpg	1	0.75	986.831	990.563	990.238	1
54	2	30	238	990.852	4	rest.jpg	n/a	n/a	990.852	994.581	994.852	n/a
54	2	30	239	994.83	4	rest.jpg	n/a	n/a	994.83	998.567	998.83	n/a
54	2	30	240	998.817	4	rest.jpg	n/a	n/a	998.817	1002.552	1002.817	n/a
