sub	run	block	trail	oneset	duration	stim_file	stim_lable	level of occlusion	stim_started	stim_stopped	key_time	key_fix
54	1	1	1	39.994	4	Aircraft1_10%_2.jpg	0	0.1	39.994	43.731	42.493	0
54	1	1	2	44.017	4	Aircraft1_10%_39.jpg	0	0.1	44.017	47.748	47.403	0
54	1	1	3	48.02	4	Aircraft2_10%_26.jpg	1	0.1	48.02	51.753	49.774	1
54	1	1	4	52.029	4	Aircraft1_10%_15.jpg	0	0.1	52.029	55.762	56.029	0
54	1	1	5	56.049	4	Aircraft2_10%_16.jpg	1	0.1	56.049	59.781	56.204	1
54	1	1	6	60.053	4	rest.jpg	n/a	n/a	60.053	63.788	64.053	n/a
54	1	1	7	64.021	4	rest.jpg	n/a	n/a	64.021	67.752	68.021	n/a
54	1	1	8	67.986	4	rest.jpg	n/a	n/a	67.986	71.719	71.986	n/a
54	1	2	9	71.986	4	Aircraft2_90%_14.jpg	1	0.9	71.986	75.719	75.012	1
54	1	2	10	76.001	4	Aircraft2_90%_5.jpg	1	0.9	76.001	79.733	77.744	1
54	1	2	11	80.005	4	Aircraft2_90%_15.jpg	1	0.9	80.005	83.741	82.723	1
54	1	2	12	84.009	4	Aircraft2_90%_19.jpg	1	0.9	84.009	87.746	87.22	1
54	1	2	13	88.025	4	Aircraft1_90%_31.jpg	0	0.9	88.025	91.761	90.93	0
54	1	2	14	92.044	4	rest.jpg	n/a	n/a	92.044	95.783	96.044	n/a
54	1	2	15	96.032	4	rest.jpg	n/a	n/a	96.032	99.765	100.032	n/a
54	1	2	16	100.016	4	rest.jpg	n/a	n/a	100.016	103.755	104.016	n/a
54	1	3	17	104.029	4	Aircraft2_70%_4.jpg	1	0.75	104.029	107.763	107.555	1
54	1	3	18	108.047	4	Aircraft1_70%_43.jpg	0	0.75	108.047	111.785	110.897	0
54	1	3	19	112.073	4	Aircraft1_70%_9.jpg	0	0.75	112.073	115.803	115.556	0
54	1	3	20	116.091	4	Aircraft1_70%_11.jpg	0	0.75	116.091	119.827	119.543	0
54	1	3	21	120.114	4	Aircraft1_70%_50.jpg	0	0.75	120.114	123.85	122.167	0
54	1	3	22	124.13	4	rest.jpg	n/a	n/a	124.13	127.865	128.13	n/a
54	1	3	23	128.1	4	rest.jpg	n/a	n/a	128.1	131.83	132.1	n/a
54	1	3	24	132.065	4	rest.jpg	n/a	n/a	132.065	135.797	136.065	n/a
54	1	4	25	136.088	4	Aircraft1_10%_36.jpg	0	0.1	136.088	139.825	138.344	0
54	1	4	26	140.112	4	Aircraft1_10%_35.jpg	0	0.1	140.112	143.85	142.081	0
54	1	4	27	144.124	4	Aircraft2_10%_3.jpg	1	0.1	144.124	147.86	145.908	1
54	1	4	28	148.159	4	Aircraft1_10%_5.jpg	0	0.1	148.159	151.894	150.757	0
54	1	4	29	152.185	4	Aircraft1_10%_48.jpg	0	0.1	152.185	155.917	154.272	0
54	1	4	30	156.2	4	rest.jpg	n/a	n/a	156.2	159.937	160.2	n/a
54	1	4	31	160.173	4	rest.jpg	n/a	n/a	160.173	163.909	164.173	n/a
54	1	4	32	164.161	4	rest.jpg	n/a	n/a	164.161	167.893	168.161	n/a
54	1	5	33	168.184	4	Aircraft1_90%_3.jpg	0	0.9	168.184	171.918	171.482	0
54	1	5	34	172.189	4	Aircraft2_90%_28.jpg	1	0.9	172.189	175.921	174.12	1
54	1	5	35	176.205	4	Aircraft1_90%_24.jpg	0	0.9	176.205	179.937	180.205	0
54	1	5	36	180.214	4	Aircraft2_90%_39.jpg	1	0.9	180.214	183.944	182.519	1
54	1	5	37	184.215	4	Aircraft2_90%_8.jpg	1	0.9	184.215	187.951	187.774	1
54	1	5	38	188.235	4	rest.jpg	n/a	n/a	188.235	191.964	192.235	n/a
54	1	5	39	192.214	4	rest.jpg	n/a	n/a	192.214	195.95	196.214	n/a
54	1	5	40	196.188	4	rest.jpg	n/a	n/a	196.188	199.92	200.188	n/a
54	1	6	41	200.199	4	Aircraft2_70%_18.jpg	1	0.75	200.199	203.929	203.636	1
54	1	6	42	204.219	4	Aircraft1_70%_29.jpg	0	0.75	204.219	207.954	207.838	0
54	1	6	43	208.245	4	Aircraft2_70%_1.jpg	1	0.75	208.245	211.977	210.951	1
54	1	6	44	212.27	4	Aircraft1_70%_26.jpg	0	0.75	212.27	216	216.27	0
54	1	6	45	216.288	4	Aircraft2_70%_34.jpg	1	0.75	216.288	220.029	219.007	1
54	1	6	46	220.303	4	rest.jpg	n/a	n/a	220.303	224.035	224.303	n/a
54	1	6	47	224.269	4	rest.jpg	n/a	n/a	224.269	228.006	228.269	n/a
54	1	6	48	228.242	4	rest.jpg	n/a	n/a	228.242	231.972	232.242	n/a
54	1	7	49	232.246	4	Aircraft2_10%_17.jpg	1	0.1	232.246	235.976	234.138	1
54	1	7	50	236.257	4	Aircraft2_10%_11.jpg	1	0.1	236.257	239.988	237.294	1
54	1	7	51	240.265	4	Aircraft1_10%_20.jpg	0	0.1	240.265	243.996	242.63	0
54	1	7	52	244.293	4	Aircraft2_10%_47.jpg	1	0.1	244.293	248.023	247.006	1
54	1	7	53	248.294	4	Aircraft2_10%_45.jpg	1	0.1	248.294	252.03	250.858	1
54	1	7	54	252.313	4	rest.jpg	n/a	n/a	252.313	256.05	256.313	n/a
54	1	7	55	256.287	4	rest.jpg	n/a	n/a	256.287	260.019	260.287	n/a
54	1	7	56	260.253	4	rest.jpg	n/a	n/a	260.253	263.988	264.253	n/a
54	1	8	57	264.274	4	Aircraft1_90%_25.jpg	0	0.9	264.274	268.01	268.274	0
54	1	8	58	268.28	4	Aircraft2_90%_49.jpg	1	0.9	268.28	272.011	272.28	1
54	1	8	59	272.284	4	Aircraft2_90%_10.jpg	1	0.9	272.284	276.016	276.284	1
54	1	8	60	276.281	4	Aircraft2_90%_12.jpg	1	0.9	276.281	280.012	278.47	1
54	1	8	61	280.29	4	Aircraft2_90%_7.jpg	1	0.9	280.29	284.026	283.126	1
54	1	8	62	284.293	4	rest.jpg	n/a	n/a	284.293	288.023	288.293	n/a
54	1	8	63	288.272	4	rest.jpg	n/a	n/a	288.272	292.007	292.272	n/a
54	1	8	64	292.258	4	rest.jpg	n/a	n/a	292.258	295.995	296.258	n/a
54	1	9	65	296.26	4	Aircraft1_70%_32.jpg	0	0.75	296.26	299.991	299.11	0
54	1	9	66	300.263	4	Aircraft1_70%_49.jpg	0	0.75	300.263	303.993	303.548	0
54	1	9	67	304.255	4	Aircraft2_70%_22.jpg	1	0.75	304.255	307.985	306.902	1
54	1	9	68	308.272	4	Aircraft1_70%_34.jpg	0	0.75	308.272	312.002	310.831	0
54	1	9	69	312.292	4	Aircraft1_70%_14.jpg	0	0.75	312.292	316.027	315.848	0
54	1	9	70	316.31	4	rest.jpg	n/a	n/a	316.31	320.042	320.31	n/a
54	1	9	71	320.274	4	rest.jpg	n/a	n/a	320.274	324.004	324.274	n/a
54	1	9	72	324.254	4	rest.jpg	n/a	n/a	324.254	327.986	328.254	n/a
54	1	10	73	328.271	4	Aircraft1_10%_1.jpg	0	0.1	328.271	332.001	330.68	0
54	1	10	74	332.287	4	Aircraft1_10%_47.jpg	0	0.1	332.287	336.018	335.777	0
54	1	10	75	336.303	4	Aircraft1_10%_40.jpg	0	0.1	336.303	340.039	338.213	0
54	1	10	76	340.327	4	Aircraft1_10%_27.jpg	0	0.1	340.327	344.064	342.627	0
54	1	10	77	344.327	4	Aircraft2_10%_35.jpg	1	0.1	344.327	348.063	345.633	1
54	1	10	78	348.346	4	rest.jpg	n/a	n/a	348.346	352.078	352.346	n/a
54	1	10	79	352.311	4	rest.jpg	n/a	n/a	352.311	356.047	356.311	n/a
54	1	10	80	356.28	4	rest.jpg	n/a	n/a	356.28	360.011	360.28	n/a
54	1	11	81	360.292	4	Aircraft1_90%_32.jpg	0	0.9	360.292	364.022	363.023	0
54	1	11	82	364.287	4	Aircraft1_90%_49.jpg	0	0.9	364.287	368.017	366.864	0
54	1	11	83	368.295	4	Aircraft2_90%_22.jpg	1	0.9	368.295	372.026	371.728	1
54	1	11	84	372.301	4	Aircraft1_90%_34.jpg	0	0.9	372.301	376.033	375.94	0
54	1	11	85	376.31	4	Aircraft1_90%_14.jpg	0	0.9	376.31	380.043	378.242	0
54	1	11	86	380.328	4	rest.jpg	n/a	n/a	380.328	384.058	384.328	n/a
54	1	11	87	384.298	4	rest.jpg	n/a	n/a	384.298	388.036	388.298	n/a
54	1	11	88	388.268	4	rest.jpg	n/a	n/a	388.268	392.003	392.268	n/a
54	1	12	89	392.27	4	Aircraft2_70%_24.jpg	1	0.75	392.27	396.006	395.614	1
54	1	12	90	396.273	4	Aircraft2_70%_2.jpg	1	0.75	396.273	400.003	398.156	1
54	1	12	91	400.291	4	Aircraft2_70%_43.jpg	1	0.75	400.291	404.021	403.577	1
54	1	12	92	404.292	4	Aircraft2_70%_46.jpg	1	0.75	404.292	408.024	407.259	1
54	1	12	93	408.288	4	Aircraft1_70%_42.jpg	0	0.75	408.288	412.023	409.866	0
54	1	12	94	412.307	4	rest.jpg	n/a	n/a	412.307	416.042	416.307	n/a
54	1	12	95	416.273	4	rest.jpg	n/a	n/a	416.273	420.006	420.273	n/a
54	1	12	96	420.239	4	rest.jpg	n/a	n/a	420.239	423.969	424.239	n/a
54	1	13	97	424.241	4	Aircraft2_10%_30.jpg	1	0.1	424.241	427.973	427.624	1
54	1	13	98	428.252	4	Aircraft2_10%_27.jpg	1	0.1	428.252	431.984	431.16	1
54	1	13	99	432.271	4	Aircraft2_10%_50.jpg	1	0.1	432.271	436.008	434.834	1
54	1	13	100	436.295	4	Aircraft2_10%_29.jpg	1	0.1	436.295	440.025	439.628	1
54	1	13	101	440.295	4	Aircraft1_10%_6.jpg	0	0.1	440.295	444.03	442.559	0
54	1	13	102	444.298	4	rest.jpg	n/a	n/a	444.298	448.028	448.298	n/a
54	1	13	103	448.278	4	rest.jpg	n/a	n/a	448.278	452.014	452.278	n/a
54	1	13	104	452.248	4	rest.jpg	n/a	n/a	452.248	455.98	456.248	n/a
54	1	14	105	456.244	4	Aircraft2_90%_18.jpg	1	0.9	456.244	459.982	459.621	1
54	1	14	106	460.248	4	Aircraft1_90%_29.jpg	0	0.9	460.248	463.981	463.734	0
54	1	14	107	464.262	4	Aircraft2_90%_1.jpg	1	0.9	464.262	467.995	467.495	1
54	1	14	108	468.263	4	Aircraft1_90%_26.jpg	0	0.9	468.263	471.997	471.745	0
54	1	14	109	472.261	4	Aircraft2_90%_34.jpg	1	0.9	472.261	475.998	476.261	1
54	1	14	110	476.269	4	rest.jpg	n/a	n/a	476.269	480.003	480.269	n/a
54	1	14	111	480.234	4	rest.jpg	n/a	n/a	480.234	483.971	484.234	n/a
54	1	14	112	484.204	4	rest.jpg	n/a	n/a	484.204	487.941	488.204	n/a
54	1	15	113	488.21	4	Aircraft1_70%_17.jpg	0	0.75	488.21	491.946	491.499	0
54	1	15	114	492.218	4	Aircraft2_70%_42.jpg	1	0.75	492.218	495.95	495.41	1
54	1	15	115	496.231	4	Aircraft2_70%_44.jpg	1	0.75	496.231	499.966	499.312	1
54	1	15	116	500.249	4	Aircraft1_70%_10.jpg	0	0.75	500.249	503.982	503.071	0
54	1	15	117	504.271	4	Aircraft2_70%_25.jpg	1	0.75	504.271	508.001	506.889	1
54	1	15	118	508.291	4	rest.jpg	n/a	n/a	508.291	512.021	512.291	n/a
54	1	15	119	512.255	4	rest.jpg	n/a	n/a	512.255	515.985	516.255	n/a
54	1	15	120	516.234	4	rest.jpg	n/a	n/a	516.234	519.972	520.234	n/a
54	1	16	121	520.241	4	Aircraft1_10%_38.jpg	0	0.1	520.241	523.976	523.618	0
54	1	16	122	524.255	4	Aircraft2_10%_21.jpg	1	0.1	524.255	527.987	527.637	1
54	1	16	123	528.272	4	Aircraft1_10%_16.jpg	0	0.1	528.272	532.002	531.699	0
54	1	16	124	532.294	4	Aircraft1_10%_46.jpg	0	0.1	532.294	536.026	535.616	0
54	1	16	125	536.309	4	Aircraft2_10%_40.jpg	1	0.1	536.309	540.039	538.703	1
54	1	16	126	540.307	4	rest.jpg	n/a	n/a	540.307	544.04	544.307	n/a
54	1	16	127	544.285	4	rest.jpg	n/a	n/a	544.285	548.02	548.285	n/a
54	1	16	128	548.269	4	rest.jpg	n/a	n/a	548.269	552.005	552.269	n/a
54	1	17	129	552.285	4	Aircraft2_90%_4.jpg	1	0.9	552.285	556.015	555.59	1
54	1	17	130	556.28	4	Aircraft1_90%_43.jpg	0	0.9	556.28	560.012	558.945	0
54	1	17	131	560.273	4	Aircraft1_90%_9.jpg	0	0.9	560.273	564.006	563.696	0
54	1	17	132	564.286	4	Aircraft1_90%_11.jpg	0	0.9	564.286	568.021	567.41	0
54	1	17	133	568.303	4	Aircraft1_90%_50.jpg	0	0.9	568.303	572.035	570.893	0
54	1	17	134	572.31	4	rest.jpg	n/a	n/a	572.31	576.043	576.31	n/a
54	1	17	135	576.292	4	rest.jpg	n/a	n/a	576.292	580.029	580.292	n/a
54	1	17	136	580.278	4	rest.jpg	n/a	n/a	580.278	584.012	584.278	n/a
54	1	18	137	584.297	4	Aircraft1_70%_12.jpg	0	0.75	584.297	588.026	587.085	0
54	1	18	138	588.295	4	Aircraft2_70%_32.jpg	1	0.75	588.295	592.025	590.247	1
54	1	18	139	592.302	4	Aircraft2_70%_48.jpg	1	0.75	592.302	596.033	594.702	1
54	1	18	140	596.303	4	Aircraft1_70%_19.jpg	0	0.75	596.303	600.04	598.191	0
54	1	18	141	600.321	4	Aircraft1_70%_33.jpg	0	0.75	600.321	604.056	603.289	0
54	1	18	142	604.338	4	rest.jpg	n/a	n/a	604.338	608.074	608.338	n/a
54	1	18	143	608.324	4	rest.jpg	n/a	n/a	608.324	612.056	612.324	n/a
54	1	18	144	612.289	4	rest.jpg	n/a	n/a	612.289	616.021	616.289	n/a
54	1	19	145	616.291	4	Aircraft2_10%_23.jpg	1	0.1	616.291	620.021	618.814	1
54	1	19	146	620.286	4	Aircraft1_10%_28.jpg	0	0.1	620.286	624.02	623.354	0
54	1	19	147	624.299	4	Aircraft2_10%_13.jpg	1	0.1	624.299	628.033	626.553	1
54	1	19	148	628.304	4	Aircraft1_10%_45.jpg	0	0.1	628.304	632.034	631.112	0
54	1	19	149	632.303	4	Aircraft1_10%_37.jpg	0	0.1	632.303	636.033	635.17	0
54	1	19	150	636.318	4	rest.jpg	n/a	n/a	636.318	640.056	640.318	n/a
54	1	19	151	640.288	4	rest.jpg	n/a	n/a	640.288	644.024	644.288	n/a
54	1	19	152	644.271	4	rest.jpg	n/a	n/a	644.271	648.011	648.271	n/a
54	1	20	153	648.274	4	Aircraft2_90%_33.jpg	1	0.9	648.274	652.012	651.733	1
54	1	20	154	652.286	4	Aircraft2_90%_38.jpg	1	0.9	652.286	656.023	656.286	1
54	1	20	155	656.288	4	Aircraft1_90%_30.jpg	0	0.9	656.288	660.023	659.317	0
54	1	20	156	660.285	4	Aircraft1_90%_41.jpg	0	0.9	660.285	664.022	663.896	0
54	1	20	157	664.301	4	Aircraft1_90%_18.jpg	0	0.9	664.301	668.033	668.301	0
54	1	20	158	668.302	4	rest.jpg	n/a	n/a	668.302	672.035	672.302	n/a
54	1	20	159	672.285	4	rest.jpg	n/a	n/a	672.285	676.02	676.285	n/a
54	1	20	160	676.272	4	rest.jpg	n/a	n/a	676.272	680.012	680.272	n/a
54	1	21	161	680.287	4	Aircraft2_70%_9.jpg	1	0.75	680.287	684.018	683.248	1
54	1	21	162	684.298	4	Aircraft2_70%_6.jpg	1	0.75	684.298	688.028	686.415	1
54	1	21	163	688.32	4	Aircraft1_70%_23.jpg	0	0.75	688.32	692.052	691.635	0
54	1	21	164	692.33	4	Aircraft1_70%_21.jpg	0	0.75	692.33	696.065	693.593	0
54	1	21	165	696.339	4	Aircraft2_70%_36.jpg	1	0.75	696.339	700.071	699.589	1
54	1	21	166	700.343	4	rest.jpg	n/a	n/a	700.343	704.073	704.343	n/a
54	1	21	167	704.322	4	rest.jpg	n/a	n/a	704.322	708.058	708.322	n/a
54	1	21	168	708.29	4	rest.jpg	n/a	n/a	708.29	712.021	712.29	n/a
54	1	22	169	712.298	4	Aircraft2_10%_41.jpg	1	0.1	712.298	716.035	714.831	1
54	1	22	170	716.326	4	Aircraft1_10%_22.jpg	0	0.1	716.326	720.056	719.44	0
54	1	22	171	720.343	4	Aircraft1_10%_44.jpg	0	0.1	720.343	724.073	724.343	0
54	1	22	172	724.353	4	Aircraft1_10%_1.jpg	0	0.1	724.353	728.09	727.598	0
54	1	22	173	728.361	4	Aircraft2_10%_37.jpg	1	0.1	728.361	732.095	731.056	1
54	1	22	174	732.369	4	rest.jpg	n/a	n/a	732.369	736.105	736.369	n/a
54	1	22	175	736.351	4	rest.jpg	n/a	n/a	736.351	740.085	740.351	n/a
54	1	22	176	740.33	4	rest.jpg	n/a	n/a	740.33	744.06	744.33	n/a
54	1	23	177	744.329	4	Aircraft2_90%_31.jpg	1	0.9	744.329	748.065	748.329	1
54	1	23	178	748.346	4	Aircraft1_90%_4.jpg	0	0.9	748.346	752.076	751.793	0
54	1	23	179	752.365	4	Aircraft2_90%_20.jpg	1	0.9	752.365	756.095	755.792	1
54	1	23	180	756.378	4	Aircraft1_90%_7.jpg	0	0.9	756.378	760.11	760.378	0
54	1	23	181	760.394	4	Aircraft1_90%_8.jpg	0	0.9	760.394	764.13	763.805	0
54	1	23	182	764.417	4	rest.jpg	n/a	n/a	764.417	768.148	768.417	n/a
54	1	23	183	768.397	4	rest.jpg	n/a	n/a	768.397	772.129	772.397	n/a
54	1	23	184	772.373	4	rest.jpg	n/a	n/a	772.373	776.103	776.373	n/a
54	1	24	185	776.391	4	Aircraft2_70%_14.jpg	1	0.75	776.391	780.121	779.45	1
54	1	24	186	780.413	4	Aircraft2_70%_5.jpg	1	0.75	780.413	784.145	783.565	1
54	1	24	187	784.434	4	Aircraft2_70%_15.jpg	1	0.75	784.434	788.164	787.597	1
54	1	24	188	788.448	4	Aircraft2_70%_19.jpg	1	0.75	788.448	792.178	790.775	1
54	1	24	189	792.454	4	Aircraft1_70%_31.jpg	0	0.75	792.454	796.188	796.454	0
54	1	24	190	796.471	4	rest.jpg	n/a	n/a	796.471	800.208	800.471	n/a
54	1	24	191	800.442	4	rest.jpg	n/a	n/a	800.442	804.172	804.442	n/a
54	1	24	192	804.42	4	rest.jpg	n/a	n/a	804.42	808.155	808.42	n/a
54	1	25	193	808.444	4	Aircraft2_10%_9.jpg	1	0.1	808.444	812.174	811.695	1
54	1	25	194	812.457	4	Aircraft2_10%_6.jpg	1	0.1	812.457	816.187	815.97	1
54	1	25	195	816.477	4	Aircraft1_10%_23.jpg	0	0.1	816.477	820.214	820.088	0
54	1	25	196	820.501	4	Aircraft1_10%_21.jpg	0	0.1	820.501	824.234	823.917	0
54	1	25	197	824.516	4	Aircraft2_10%_36.jpg	1	0.1	824.516	828.252	828.136	1
54	1	25	198	828.526	4	rest.jpg	n/a	n/a	828.526	832.258	832.526	n/a
54	1	25	199	832.508	4	rest.jpg	n/a	n/a	832.508	836.238	836.508	n/a
54	1	25	200	836.472	4	rest.jpg	n/a	n/a	836.472	840.204	840.472	n/a
54	1	26	201	840.485	4	Aircraft2_90%_24.jpg	1	0.9	840.485	844.215	844.485	1
54	1	26	202	844.492	4	Aircraft2_90%_2.jpg	1	0.9	844.492	848.225	844.865	1
54	1	26	203	848.493	4	Aircraft2_90%_43.jpg	1	0.9	848.493	852.229	851.351	1
54	1	26	204	852.513	4	Aircraft2_90%_46.jpg	1	0.9	852.513	856.246	855.015	1
54	1	26	205	856.514	4	Aircraft1_90%_42.jpg	0	0.9	856.514	860.251	859.209	0
54	1	26	206	860.538	4	rest.jpg	n/a	n/a	860.538	864.268	864.538	n/a
54	1	26	207	864.521	4	rest.jpg	n/a	n/a	864.521	868.253	868.521	n/a
54	1	26	208	868.49	4	rest.jpg	n/a	n/a	868.49	872.225	872.49	n/a
54	1	27	209	872.499	4	Aircraft1_70%_3.jpg	0	0.75	872.499	876.228	875.607	0
54	1	27	210	876.516	4	Aircraft2_70%_28.jpg	1	0.75	876.516	880.253	879.2	1
54	1	27	211	880.527	4	Aircraft1_70%_24.jpg	0	0.75	880.527	884.259	884.088	0
54	1	27	212	884.535	4	Aircraft2_70%_39.jpg	1	0.75	884.535	888.271	887.712	1
54	1	27	213	888.546	4	Aircraft2_70%_8.jpg	1	0.75	888.546	892.278	889.785	1
54	1	27	214	892.552	4	rest.jpg	n/a	n/a	892.552	896.287	896.552	n/a
54	1	27	215	896.535	4	rest.jpg	n/a	n/a	896.535	900.265	900.535	n/a
54	1	27	216	900.515	4	rest.jpg	n/a	n/a	900.515	904.247	904.515	n/a
54	1	28	217	904.519	4	Aircraft1_10%_12.jpg	0	0.1	904.519	908.254	907.63	0
54	1	28	218	908.548	4	Aircraft2_10%_32.jpg	1	0.1	908.548	912.28	912.548	1
54	1	28	219	912.566	4	Aircraft2_10%_48.jpg	1	0.1	912.566	916.302	916.566	1
54	1	28	220	916.591	4	Aircraft1_10%_19.jpg	0	0.1	916.591	920.327	920.221	0
54	1	28	221	920.599	4	Aircraft1_10%_33.jpg	0	0.1	920.599	924.334	923.783	0
54	1	28	222	924.622	4	rest.jpg	n/a	n/a	924.622	928.354	928.622	n/a
54	1	28	223	928.604	4	rest.jpg	n/a	n/a	928.604	932.336	932.604	n/a
54	1	28	224	932.586	4	rest.jpg	n/a	n/a	932.586	936.316	936.586	n/a
54	1	29	225	936.594	4	Aircraft1_90%_17.jpg	0	0.9	936.594	940.324	939.194	0
54	1	29	226	940.595	4	Aircraft2_90%_42.jpg	1	0.9	940.595	944.325	944.595	1
54	1	29	227	944.603	4	Aircraft2_90%_44.jpg	1	0.9	944.603	948.337	944.622	1
54	1	29	228	948.605	4	Aircraft1_90%_10.jpg	0	0.9	948.605	952.342	951.278	0
54	1	29	229	952.623	4	Aircraft2_90%_25.jpg	1	0.9	952.623	956.358	954.872	1
54	1	29	230	956.632	4	rest.jpg	n/a	n/a	956.632	960.362	960.632	n/a
54	1	29	231	960.611	4	rest.jpg	n/a	n/a	960.611	964.341	964.611	n/a
54	1	29	232	964.575	4	rest.jpg	n/a	n/a	964.575	968.31	968.575	n/a
54	1	30	233	968.581	4	Aircraft1_70%_25.jpg	0	0.75	968.581	972.313	971.389	0
54	1	30	234	972.592	4	Aircraft2_70%_49.jpg	1	0.75	972.592	976.329	974.946	1
54	1	30	235	976.601	4	Aircraft2_70%_10.jpg	1	0.75	976.601	980.334	979.256	1
54	1	30	236	980.624	4	Aircraft2_70%_12.jpg	1	0.75	980.624	984.353	984.007	1
54	1	30	237	984.64	4	Aircraft2_70%_7.jpg	1	0.75	984.64	988.37	985.84	1
54	1	30	238	988.657	4	rest.jpg	n/a	n/a	988.657	992.394	992.657	n/a
54	1	30	239	992.626	4	rest.jpg	n/a	n/a	992.626	996.362	996.626	n/a
54	1	30	240	996.611	4	rest.jpg	n/a	n/a	996.611	1000.348	1000.611	n/a
