sub	run	block	trail	oneset	duration	stim_file	stim_lable	level of occlusion	stim_started	stim_stopped	key_time	key_fix
30	2	1	1	40.014	4	Aircraft1_10%_17.jpg	0	0.1	40.014	43.744	40.938	0
30	2	1	2	44.012	4	Aircraft2_10%_42.jpg	1	0.1	44.012	47.749	45.406	1
30	2	1	3	48.028	4	Aircraft2_10%_44.jpg	1	0.1	48.028	51.761	49.096	1
30	2	1	4	52.03	4	Aircraft1_10%_10.jpg	0	0.1	52.03	55.764	52.931	0
30	2	1	5	56.027	4	Aircraft2_10%_25.jpg	1	0.1	56.027	59.76	57.22	1
30	2	1	6	60.022	4	rest.jpg	n/a	n/a	60.022	63.753	64.022	n/a
30	2	1	7	64.002	4	rest.jpg	n/a	n/a	64.002	67.737	68.002	n/a
30	2	1	8	67.969	4	rest.jpg	n/a	n/a	67.969	71.704	71.969	n/a
30	2	2	9	71.98	4	Aircraft1_90%_12.jpg	0	0.9	71.98	75.713	74.431	0
30	2	2	10	75.975	4	Aircraft2_90%_32.jpg	1	0.9	75.975	79.705	78.526	1
30	2	2	11	79.991	4	Aircraft2_90%_48.jpg	1	0.9	79.991	83.721	81.65	1
30	2	2	12	83.982	4	Aircraft1_90%_19.jpg	0	0.9	83.982	87.717	86.718	0
30	2	2	13	87.977	4	Aircraft1_90%_33.jpg	0	0.9	87.977	91.71	90.561	0
30	2	2	14	91.972	4	rest.jpg	n/a	n/a	91.972	95.708	95.972	n/a
30	2	2	15	95.957	4	rest.jpg	n/a	n/a	95.957	99.695	99.957	n/a
30	2	2	16	99.925	4	rest.jpg	n/a	n/a	99.925	103.66	103.925	n/a
30	2	3	17	103.926	4	Aircraft2_70%_33.jpg	1	0.75	103.926	107.658	106.111	1
30	2	3	18	107.923	4	Aircraft2_70%_38.jpg	1	0.75	107.923	111.655	109.884	1
30	2	3	19	111.923	4	Aircraft1_70%_30.jpg	0	0.75	111.923	115.652	113.865	0
30	2	3	20	115.94	4	Aircraft1_70%_41.jpg	0	0.75	115.94	119.675	118.626	0
30	2	3	21	119.959	4	Aircraft1_70%_18.jpg	0	0.75	119.959	123.693	122.133	0
30	2	3	22	123.961	4	rest.jpg	n/a	n/a	123.961	127.693	127.961	n/a
30	2	3	23	127.926	4	rest.jpg	n/a	n/a	127.926	131.655	131.926	n/a
30	2	3	24	131.887	4	rest.jpg	n/a	n/a	131.887	135.619	135.887	n/a
30	2	4	25	135.905	4	Aircraft2_10%_24.jpg	1	0.1	135.905	139.636	137.274	1
30	2	4	26	139.926	4	Aircraft2_10%_2.jpg	1	0.1	139.926	143.66	140.999	1
30	2	4	27	143.935	4	Aircraft2_10%_43.jpg	1	0.1	143.935	147.669	144.812	1
30	2	4	28	147.936	4	Aircraft2_10%_46.jpg	1	0.1	147.936	151.665	148.568	1
30	2	4	29	151.929	4	Aircraft1_10%_42.jpg	0	0.1	151.929	155.663	153.626	0
30	2	4	30	155.927	4	rest.jpg	n/a	n/a	155.927	159.662	159.927	n/a
30	2	4	31	159.91	4	rest.jpg	n/a	n/a	159.91	163.639	163.91	n/a
30	2	4	32	163.869	4	rest.jpg	n/a	n/a	163.869	167.599	167.869	n/a
30	2	5	33	167.868	4	Aircraft2_90%_9.jpg	1	0.9	167.868	171.598	170.326	1
30	2	5	34	171.879	4	Aircraft2_90%_6.jpg	1	0.9	171.879	175.615	174.252	1
30	2	5	35	175.876	4	Aircraft1_90%_23.jpg	0	0.9	175.876	179.607	177.638	0
30	2	5	36	179.867	4	Aircraft1_90%_21.jpg	0	0.9	179.867	183.598	182.106	0
30	2	5	37	183.859	4	Aircraft2_90%_36.jpg	1	0.9	183.859	187.593	185.951	1
30	2	5	38	187.877	4	rest.jpg	n/a	n/a	187.877	191.606	191.877	n/a
30	2	5	39	191.855	4	rest.jpg	n/a	n/a	191.855	195.589	195.855	n/a
30	2	5	40	195.819	4	rest.jpg	n/a	n/a	195.819	199.553	199.819	n/a
30	2	6	41	199.834	4	Aircraft2_70%_31.jpg	1	0.75	199.834	203.563	201.461	1
30	2	6	42	203.845	4	Aircraft1_70%_4.jpg	0	0.75	203.845	207.576	206.135	0
30	2	6	43	207.862	4	Aircraft2_70%_20.jpg	1	0.75	207.862	211.596	210.89	1
30	2	6	44	211.862	4	Aircraft1_70%_7.jpg	0	0.75	211.862	215.593	213.618	0
30	2	6	45	215.859	4	Aircraft1_70%_8.jpg	0	0.75	215.859	219.595	216.794	0
30	2	6	46	219.859	4	rest.jpg	n/a	n/a	219.859	223.594	223.859	n/a
30	2	6	47	223.843	4	rest.jpg	n/a	n/a	223.843	227.574	227.843	n/a
30	2	6	48	227.806	4	rest.jpg	n/a	n/a	227.806	231.536	231.806	n/a
30	2	7	49	231.824	4	Aircraft2_10%_31.jpg	1	0.1	231.824	235.554	232.753	1
30	2	7	50	235.842	4	Aircraft1_10%_4.jpg	0	0.1	235.842	239.576	236.714	0
30	2	7	51	239.859	4	Aircraft2_10%_20.jpg	1	0.1	239.859	243.59	241.255	1
30	2	7	52	243.856	4	Aircraft1_10%_7.jpg	0	0.1	243.856	247.587	244.742	0
30	2	7	53	247.872	4	Aircraft1_10%_8.jpg	0	0.1	247.872	251.606	249.163	0
30	2	7	54	251.87	4	rest.jpg	n/a	n/a	251.87	255.603	255.87	n/a
30	2	7	55	255.835	4	rest.jpg	n/a	n/a	255.835	259.569	259.835	n/a
30	2	7	56	259.801	4	rest.jpg	n/a	n/a	259.801	263.531	263.801	n/a
30	2	8	57	263.806	4	Aircraft2_90%_41.jpg	1	0.9	263.806	267.535	265.889	1
30	2	8	58	267.815	4	Aircraft1_90%_22.jpg	0	0.9	267.815	271.547	270.115	0
30	2	8	59	271.821	4	Aircraft1_90%_44.jpg	0	0.9	271.821	275.557	273.761	0
30	2	8	60	275.819	4	Aircraft1_90%_1.jpg	0	0.9	275.819	279.548	278.688	0
30	2	8	61	279.824	4	Aircraft2_90%_37.jpg	1	0.9	279.824	283.558	282.769	1
30	2	8	62	283.841	4	rest.jpg	n/a	n/a	283.841	287.57	287.841	n/a
30	2	8	63	287.82	4	rest.jpg	n/a	n/a	287.82	291.555	291.82	n/a
30	2	8	64	291.79	4	rest.jpg	n/a	n/a	291.79	295.524	295.79	n/a
30	2	9	65	295.79	4	Aircraft2_70%_41.jpg	1	0.75	295.79	299.519	297.368	1
30	2	9	66	299.786	4	Aircraft1_70%_22.jpg	0	0.75	299.786	303.514	301.922	0
30	2	9	67	303.797	4	Aircraft1_70%_44.jpg	0	0.75	303.797	307.528	305.956	0
30	2	9	68	307.815	4	Aircraft1_70%_1.jpg	0	0.75	307.815	311.544	309.8	0
30	2	9	69	311.828	4	Aircraft2_70%_37.jpg	1	0.75	311.828	315.557	313.764	1
30	2	9	70	315.839	4	rest.jpg	n/a	n/a	315.839	319.57	319.839	n/a
30	2	9	71	319.815	4	rest.jpg	n/a	n/a	319.815	323.544	323.815	n/a
30	2	9	72	323.776	4	rest.jpg	n/a	n/a	323.776	327.507	327.776	n/a
30	2	10	73	327.791	4	Aircraft2_10%_33.jpg	1	0.1	327.791	331.526	329.148	1
30	2	10	74	331.794	4	Aircraft2_10%_38.jpg	1	0.1	331.794	335.525	333.174	1
30	2	10	75	335.808	4	Aircraft1_10%_30.jpg	0	0.1	335.808	339.538	338.184	0
30	2	10	76	339.827	4	Aircraft1_10%_41.jpg	0	0.1	339.827	343.561	341.838	0
30	2	10	77	343.843	4	Aircraft1_10%_18.jpg	0	0.1	343.843	347.574	345.491	0
30	2	10	78	347.857	4	rest.jpg	n/a	n/a	347.857	351.588	351.857	n/a
30	2	10	79	351.823	4	rest.jpg	n/a	n/a	351.823	355.557	355.823	n/a
30	2	10	80	355.788	4	rest.jpg	n/a	n/a	355.788	359.518	359.788	n/a
30	2	11	81	359.779	4	Aircraft2_90%_23.jpg	1	0.9	359.779	363.51	362.873	1
30	2	11	82	363.771	4	Aircraft1_90%_28.jpg	0	0.9	363.771	367.505	366.621	0
30	2	11	83	367.766	4	Aircraft2_90%_13.jpg	1	0.9	367.766	371.495	369.826	1
30	2	11	84	371.773	4	Aircraft1_90%_45.jpg	0	0.9	371.773	375.501	373.781	0
30	2	11	85	375.76	4	Aircraft1_90%_37.jpg	0	0.9	375.76	379.494	377.662	0
30	2	11	86	379.756	4	rest.jpg	n/a	n/a	379.756	383.49	383.756	n/a
30	2	11	87	383.738	4	rest.jpg	n/a	n/a	383.738	387.469	387.738	n/a
30	2	11	88	387.7	4	rest.jpg	n/a	n/a	387.7	391.434	391.7	n/a
30	2	12	89	391.701	4	Aircraft1_70%_2.jpg	0	0.75	391.701	395.437	393.512	0
30	2	12	90	395.718	4	Aircraft1_70%_39.jpg	0	0.75	395.718	399.453	397.547	0
30	2	12	91	399.719	4	Aircraft2_70%_26.jpg	1	0.75	399.719	403.453	402.278	1
30	2	12	92	403.732	4	Aircraft1_70%_15.jpg	0	0.75	403.732	407.467	406.021	0
30	2	12	93	407.734	4	Aircraft2_70%_16.jpg	1	0.75	407.734	411.463	409.847	1
30	2	12	94	411.745	4	rest.jpg	n/a	n/a	411.745	415.474	415.745	n/a
30	2	12	95	415.707	4	rest.jpg	n/a	n/a	415.707	419.441	419.707	n/a
30	2	12	96	419.671	4	rest.jpg	n/a	n/a	419.671	423.407	423.671	n/a
30	2	13	97	423.696	4	Aircraft2_10%_4.jpg	1	0.1	423.696	427.427	424.917	1
30	2	13	98	427.716	4	Aircraft1_10%_43.jpg	0	0.1	427.716	431.447	429.26	0
30	2	13	99	431.732	4	Aircraft1_10%_9.jpg	0	0.1	431.732	435.467	433.58	0
30	2	13	100	435.757	4	Aircraft1_10%_11.jpg	0	0.1	435.757	439.488	437.298	0
30	2	13	101	439.753	4	Aircraft1_10%_50.jpg	0	0.1	439.753	443.489	441.639	0
30	2	13	102	443.772	4	rest.jpg	n/a	n/a	443.772	447.5	447.772	n/a
30	2	13	103	447.748	4	rest.jpg	n/a	n/a	447.748	451.477	451.748	n/a
30	2	13	104	451.72	4	rest.jpg	n/a	n/a	451.72	455.45	455.72	n/a
30	2	14	105	455.731	4	Aircraft1_90%_38.jpg	0	0.9	455.731	459.462	458.287	0
30	2	14	106	459.736	4	Aircraft2_90%_21.jpg	1	0.9	459.736	463.47	462.267	1
30	2	14	107	463.731	4	Aircraft1_90%_16.jpg	0	0.9	463.731	467.467	465.623	0
30	2	14	108	467.742	4	Aircraft1_90%_46.jpg	0	0.9	467.742	471.477	470.578	0
30	2	14	109	471.756	4	Aircraft2_90%_40.jpg	1	0.9	471.756	475.485	473.607	1
30	2	14	110	475.752	4	rest.jpg	n/a	n/a	475.752	479.481	479.752	n/a
30	2	14	111	479.73	4	rest.jpg	n/a	n/a	479.73	483.465	483.73	n/a
30	2	14	112	483.695	4	rest.jpg	n/a	n/a	483.695	487.426	487.695	n/a
30	2	15	113	487.705	4	Aircraft1_70%_36.jpg	0	0.75	487.705	491.434	490.055	0
30	2	15	114	491.717	4	Aircraft1_70%_35.jpg	0	0.75	491.717	495.451	493.401	0
30	2	15	115	495.717	4	Aircraft2_70%_3.jpg	1	0.75	495.717	499.451	497.706	1
30	2	15	116	499.714	4	Aircraft1_70%_5.jpg	0	0.75	499.714	503.446	501.572	0
30	2	15	117	503.731	4	Aircraft1_70%_48.jpg	0	0.75	503.731	507.462	505.951	0
30	2	15	118	507.726	4	rest.jpg	n/a	n/a	507.726	511.46	511.726	n/a
30	2	15	119	511.71	4	rest.jpg	n/a	n/a	511.71	515.439	515.71	n/a
30	2	15	120	515.684	4	rest.jpg	n/a	n/a	515.684	519.412	519.684	n/a
30	2	16	121	519.692	4	Aircraft2_10%_18.jpg	1	0.1	519.692	523.423	520.949	1
30	2	16	122	523.706	4	Aircraft1_10%_29.jpg	0	0.1	523.706	527.439	525.545	0
30	2	16	123	527.703	4	Aircraft2_10%_1.jpg	1	0.1	527.703	531.437	528.883	1
30	2	16	124	531.726	4	Aircraft1_10%_26.jpg	0	0.1	531.726	535.461	533.857	0
30	2	16	125	535.725	4	Aircraft2_10%_34.jpg	1	0.1	535.725	539.454	536.506	1
30	2	16	126	539.721	4	rest.jpg	n/a	n/a	539.721	543.456	543.721	n/a
30	2	16	127	543.701	4	rest.jpg	n/a	n/a	543.701	547.433	547.701	n/a
30	2	16	128	547.682	4	rest.jpg	n/a	n/a	547.682	551.416	551.682	n/a
30	2	17	129	551.676	4	Aircraft2_90%_30.jpg	1	0.9	551.676	555.406	554.133	1
30	2	17	130	555.686	4	Aircraft2_90%_27.jpg	1	0.9	555.686	559.415	557.088	1
30	2	17	131	559.689	4	Aircraft2_90%_50.jpg	1	0.9	559.689	563.42	561.347	1
30	2	17	132	563.682	4	Aircraft2_90%_29.jpg	1	0.9	563.682	567.411	565.371	1
30	2	17	133	567.672	4	Aircraft1_90%_6.jpg	0	0.9	567.672	571.403	569.331	0
30	2	17	134	571.688	4	rest.jpg	n/a	n/a	571.688	575.417	575.688	n/a
30	2	17	135	575.668	4	rest.jpg	n/a	n/a	575.668	579.4	579.668	n/a
30	2	17	136	579.632	4	rest.jpg	n/a	n/a	579.632	583.363	583.632	n/a
30	2	18	137	583.645	4	Aircraft2_70%_17.jpg	1	0.75	583.645	587.379	585.639	1
30	2	18	138	587.641	4	Aircraft2_70%_11.jpg	1	0.75	587.641	591.375	588.818	1
30	2	18	139	591.655	4	Aircraft1_70%_20.jpg	0	0.75	591.655	595.387	593.403	0
30	2	18	140	595.653	4	Aircraft2_70%_47.jpg	1	0.75	595.653	599.384	598.33	1
30	2	18	141	599.668	4	Aircraft2_70%_45.jpg	1	0.75	599.668	603.397	601.497	1
30	2	18	142	603.664	4	rest.jpg	n/a	n/a	603.664	607.399	607.664	n/a
30	2	18	143	607.648	4	rest.jpg	n/a	n/a	607.648	611.384	611.648	n/a
30	2	18	144	611.634	4	rest.jpg	n/a	n/a	611.634	615.363	615.634	n/a
30	2	19	145	615.646	4	Aircraft1_10%_32.jpg	0	0.1	615.646	619.375	617.001	0
30	2	19	146	619.661	4	Aircraft1_10%_49.jpg	0	0.1	619.661	623.393	620.95	0
30	2	19	147	623.659	4	Aircraft2_10%_22.jpg	1	0.1	623.659	627.391	625.147	1
30	2	19	148	627.669	4	Aircraft1_10%_34.jpg	0	0.1	627.669	631.398	629.497	0
30	2	19	149	631.682	4	Aircraft1_10%_14.jpg	0	0.1	631.682	635.417	634.811	0
30	2	19	150	635.681	4	rest.jpg	n/a	n/a	635.681	639.41	639.681	n/a
30	2	19	151	639.66	4	rest.jpg	n/a	n/a	639.66	643.389	643.66	n/a
30	2	19	152	643.62	4	rest.jpg	n/a	n/a	643.62	647.351	647.62	n/a
30	2	20	153	647.63	4	Aircraft1_90%_1.jpg	0	0.9	647.63	651.36	649.577	0
30	2	20	154	651.621	4	Aircraft1_90%_47.jpg	0	0.9	651.621	655.35	653.221	0
30	2	20	155	655.624	4	Aircraft1_90%_40.jpg	0	0.9	655.624	659.355	656.748	0
30	2	20	156	659.633	4	Aircraft1_90%_27.jpg	0	0.9	659.633	663.362	661.397	0
30	2	20	157	663.635	4	Aircraft2_90%_35.jpg	1	0.9	663.635	667.364	665.523	1
30	2	20	158	667.646	4	rest.jpg	n/a	n/a	667.646	671.375	671.646	n/a
30	2	20	159	671.618	4	rest.jpg	n/a	n/a	671.618	675.352	675.618	n/a
30	2	20	160	675.584	4	rest.jpg	n/a	n/a	675.584	679.318	679.584	n/a
30	2	21	161	679.598	4	Aircraft2_70%_23.jpg	1	0.75	679.598	683.327	681.992	1
30	2	21	162	683.594	4	Aircraft1_70%_28.jpg	0	0.75	683.594	687.323	684.606	0
30	2	21	163	687.606	4	Aircraft2_70%_13.jpg	1	0.75	687.606	691.336	689.865	1
30	2	21	164	691.603	4	Aircraft1_70%_45.jpg	0	0.75	691.603	695.331	693.427	0
30	2	21	165	695.614	4	Aircraft1_70%_37.jpg	0	0.75	695.614	699.343	697.424	0
30	2	21	166	699.624	4	rest.jpg	n/a	n/a	699.624	703.353	703.624	n/a
30	2	21	167	703.597	4	rest.jpg	n/a	n/a	703.597	707.326	707.597	n/a
30	2	21	168	707.56	4	rest.jpg	n/a	n/a	707.56	711.292	711.56	n/a
30	2	22	169	711.585	4	Aircraft1_10%_25.jpg	0	0.1	711.585	715.316	713.082	0
30	2	22	170	715.591	4	Aircraft2_10%_49.jpg	1	0.1	715.591	719.32	716.943	1
30	2	22	171	719.613	4	Aircraft2_10%_10.jpg	1	0.1	719.613	723.342	721.565	1
30	2	22	172	723.609	4	Aircraft2_10%_12.jpg	1	0.1	723.609	727.34	725.518	1
30	2	22	173	727.609	4	Aircraft2_10%_7.jpg	1	0.1	727.609	731.343	729.085	1
30	2	22	174	731.621	4	rest.jpg	n/a	n/a	731.621	735.355	735.621	n/a
30	2	22	175	735.585	4	rest.jpg	n/a	n/a	735.585	739.32	739.585	n/a
30	2	22	176	739.563	4	rest.jpg	n/a	n/a	739.563	743.297	743.563	n/a
30	2	23	177	743.577	4	Aircraft2_90%_17.jpg	1	0.9	743.577	747.314	747.095	1
30	2	23	178	747.596	4	Aircraft2_90%_11.jpg	1	0.9	747.596	751.325	749.886	1
30	2	23	179	751.586	4	Aircraft1_90%_20.jpg	0	0.9	751.586	755.32	753.364	0
30	2	23	180	755.603	4	Aircraft2_90%_47.jpg	1	0.9	755.603	759.338	757.622	1
30	2	23	181	759.599	4	Aircraft2_90%_45.jpg	1	0.9	759.599	763.33	761.229	1
30	2	23	182	763.595	4	rest.jpg	n/a	n/a	763.595	767.33	767.595	n/a
30	2	23	183	767.577	4	rest.jpg	n/a	n/a	767.577	771.311	771.577	n/a
30	2	23	184	771.558	4	rest.jpg	n/a	n/a	771.558	775.286	775.558	n/a
30	2	24	185	775.546	4	Aircraft1_70%_38.jpg	0	0.75	775.546	779.281	776.991	0
30	2	24	186	779.561	4	Aircraft2_70%_21.jpg	1	0.75	779.561	783.293	781.3	1
30	2	24	187	783.576	4	Aircraft1_70%_16.jpg	0	0.75	783.576	787.308	786.238	0
30	2	24	188	787.597	4	Aircraft1_70%_46.jpg	0	0.75	787.597	791.332	788.878	0
30	2	24	189	791.601	4	Aircraft2_70%_40.jpg	1	0.75	791.601	795.33	794.388	1
30	2	24	190	795.594	4	rest.jpg	n/a	n/a	795.594	799.325	799.594	n/a
30	2	24	191	799.573	4	rest.jpg	n/a	n/a	799.573	803.306	803.573	n/a
30	2	24	192	803.537	4	rest.jpg	n/a	n/a	803.537	807.268	807.537	n/a
30	2	25	193	807.549	4	Aircraft1_10%_3.jpg	0	0.1	807.549	811.278	808.785	0
30	2	25	194	811.559	4	Aircraft2_10%_28.jpg	1	0.1	811.559	815.288	812.933	1
30	2	25	195	815.574	4	Aircraft1_10%_24.jpg	0	0.1	815.574	819.303	816.902	0
30	2	25	196	819.571	4	Aircraft2_10%_39.jpg	1	0.1	819.571	823.305	820.544	1
30	2	25	197	823.569	4	Aircraft2_10%_8.jpg	1	0.1	823.569	827.298	824.854	1
30	2	25	198	827.562	4	rest.jpg	n/a	n/a	827.562	831.298	831.562	n/a
30	2	25	199	831.53	4	rest.jpg	n/a	n/a	831.53	835.259	835.53	n/a
30	2	25	200	835.492	4	rest.jpg	n/a	n/a	835.492	839.225	839.492	n/a
30	2	26	201	839.499	4	Aircraft1_90%_36.jpg	0	0.9	839.499	843.23	841.65	0
30	2	26	202	843.508	4	Aircraft1_90%_35.jpg	0	0.9	843.508	847.243	845.7	0
30	2	26	203	847.522	4	Aircraft2_90%_3.jpg	1	0.9	847.522	851.256	848.132	1
30	2	26	204	851.517	4	Aircraft1_90%_5.jpg	0	0.9	851.517	855.246	853.384	0
30	2	26	205	855.51	4	Aircraft1_90%_48.jpg	0	0.9	855.51	859.239	857.682	0
30	2	26	206	859.525	4	rest.jpg	n/a	n/a	859.525	863.261	863.525	n/a
30	2	26	207	863.493	4	rest.jpg	n/a	n/a	863.493	867.224	867.493	n/a
30	2	26	208	867.473	4	rest.jpg	n/a	n/a	867.473	871.202	871.473	n/a
30	2	27	209	871.468	4	Aircraft2_70%_30.jpg	1	0.75	871.468	875.201	872.791	1
30	2	27	210	875.466	4	Aircraft2_70%_27.jpg	1	0.75	875.466	879.201	878.27	1
30	2	27	211	879.476	4	Aircraft2_70%_50.jpg	1	0.75	879.476	883.205	880.442	1
30	2	27	212	883.486	4	Aircraft2_70%_29.jpg	1	0.75	883.486	887.218	885.772	1
30	2	27	213	887.482	4	Aircraft1_70%_6.jpg	0	0.75	887.482	891.216	888.909	0
30	2	27	214	891.501	4	rest.jpg	n/a	n/a	891.501	895.23	895.501	n/a
30	2	27	215	895.461	4	rest.jpg	n/a	n/a	895.461	899.192	899.461	n/a
30	2	27	216	899.424	4	rest.jpg	n/a	n/a	899.424	903.161	903.424	n/a
30	2	28	217	903.429	4	Aircraft2_10%_14.jpg	1	0.1	903.429	907.158	905.187	1
30	2	28	218	907.422	4	Aircraft2_10%_5.jpg	1	0.1	907.422	911.157	908.754	1
30	2	28	219	911.424	4	Aircraft2_10%_15.jpg	1	0.1	911.424	915.153	912.75	1
30	2	28	220	915.416	4	Aircraft2_10%_19.jpg	1	0.1	915.416	919.147	916.396	1
30	2	28	221	919.431	4	Aircraft1_10%_31.jpg	0	0.1	919.431	923.16	920.523	0
30	2	28	222	923.443	4	rest.jpg	n/a	n/a	923.443	927.172	927.443	n/a
30	2	28	223	927.404	4	rest.jpg	n/a	n/a	927.404	931.14	931.404	n/a
30	2	28	224	931.389	4	rest.jpg	n/a	n/a	931.389	935.123	935.389	n/a
30	2	29	225	935.401	4	Aircraft1_90%_2.jpg	0	0.9	935.401	939.132	937.753	0
30	2	29	226	939.413	4	Aircraft1_90%_39.jpg	0	0.9	939.413	943.147	941.238	0
30	2	29	227	943.408	4	Aircraft2_90%_26.jpg	1	0.9	943.408	947.139	945.504	1
30	2	29	228	947.418	4	Aircraft1_90%_15.jpg	0	0.9	947.418	951.147	949.927	0
30	2	29	229	951.427	4	Aircraft2_90%_16.jpg	1	0.9	951.427	955.158	953.788	1
30	2	29	230	955.422	4	rest.jpg	n/a	n/a	955.422	959.156	959.422	n/a
30	2	29	231	959.389	4	rest.jpg	n/a	n/a	959.389	963.12	963.389	n/a
30	2	29	232	963.37	4	rest.jpg	n/a	n/a	963.37	967.1	967.37	n/a
30	2	30	233	967.373	4	Aircraft1_70%_1.jpg	0	0.75	967.373	971.105	969.741	0
30	2	30	234	971.378	4	Aircraft1_70%_47.jpg	0	0.75	971.378	975.113	972.959	0
30	2	30	235	975.398	4	Aircraft1_70%_40.jpg	0	0.75	975.398	979.127	976.976	0
30	2	30	236	979.415	4	Aircraft1_70%_27.jpg	0	0.75	979.415	983.144	982.658	0
30	2	30	237	983.414	4	Aircraft2_70%_35.jpg	1	0.75	983.414	987.143	985.381	1
30	2	30	238	987.413	4	rest.jpg	n/a	n/a	987.413	991.142	991.413	n/a
30	2	30	239	991.375	4	rest.jpg	n/a	n/a	991.375	995.104	995.375	n/a
30	2	30	240	995.336	4	rest.jpg	n/a	n/a	995.336	999.065	999.336	n/a
