sub	run	block	trail	oneset	duration	stim_file	stim_lable	level of occlusion	stim_started	stim_stopped	key_time	key_fix
30	1	1	1	39.997	4	Aircraft1_10%_2.jpg	0	0.1	39.997	43.728	42.139	0
30	1	1	2	43.999	4	Aircraft1_10%_39.jpg	0	0.1	43.999	47.738	46.611	0
30	1	1	3	48.025	4	Aircraft2_10%_26.jpg	1	0.1	48.025	51.758	50.161	1
30	1	1	4	52.049	4	Aircraft1_10%_15.jpg	0	0.1	52.049	55.786	53.928	0
30	1	1	5	56.054	4	Aircraft2_10%_16.jpg	1	0.1	56.054	59.789	58.048	1
30	1	1	6	60.065	4	rest.jpg	n/a	n/a	60.065	63.795	64.065	n/a
30	1	1	7	64.044	4	rest.jpg	n/a	n/a	64.044	67.778	68.044	n/a
30	1	1	8	68.028	4	rest.jpg	n/a	n/a	68.028	71.761	72.028	n/a
30	1	2	9	72.043	4	Aircraft2_90%_14.jpg	1	0.9	72.043	75.78	74.116	1
30	1	2	10	76.041	4	Aircraft2_90%_5.jpg	1	0.9	76.041	79.772	78.196	1
30	1	2	11	80.032	4	Aircraft2_90%_15.jpg	1	0.9	80.032	83.766	82.141	1
30	1	2	12	84.027	4	Aircraft2_90%_19.jpg	1	0.9	84.027	87.763	86.585	1
30	1	2	13	88.024	4	Aircraft1_90%_31.jpg	0	0.9	88.024	91.757	91.284	0
30	1	2	14	92.021	4	rest.jpg	n/a	n/a	92.021	95.757	96.021	n/a
30	1	2	15	95.992	4	rest.jpg	n/a	n/a	95.992	99.724	99.992	n/a
30	1	2	16	99.972	4	rest.jpg	n/a	n/a	99.972	103.707	103.972	n/a
30	1	3	17	103.972	4	Aircraft2_70%_4.jpg	1	0.75	103.972	107.703	105.573	1
30	1	3	18	107.969	4	Aircraft1_70%_43.jpg	0	0.75	107.969	111.706	110.766	0
30	1	3	19	111.99	4	Aircraft1_70%_9.jpg	0	0.75	111.99	115.725	115.99	0
30	1	3	20	115.994	4	Aircraft1_70%_11.jpg	0	0.75	115.994	119.728	119.994	0
30	1	3	21	120.011	4	Aircraft1_70%_50.jpg	0	0.75	120.011	123.746	122.988	0
30	1	3	22	124.01	4	rest.jpg	n/a	n/a	124.01	127.74	128.01	n/a
30	1	3	23	127.972	4	rest.jpg	n/a	n/a	127.972	131.708	131.972	n/a
30	1	3	24	131.938	4	rest.jpg	n/a	n/a	131.938	135.673	135.938	n/a
30	1	4	25	135.954	4	Aircraft1_10%_36.jpg	0	0.1	135.954	139.686	137.938	0
30	1	4	26	139.97	4	Aircraft1_10%_35.jpg	0	0.1	139.97	143.701	141.984	0
30	1	4	27	143.982	4	Aircraft2_10%_3.jpg	1	0.1	143.982	147.718	145.755	1
30	1	4	28	148.007	4	Aircraft1_10%_5.jpg	0	0.1	148.007	151.739	149.776	0
30	1	4	29	152.007	4	Aircraft1_10%_48.jpg	0	0.1	152.007	155.743	154.573	0
30	1	4	30	156.028	4	rest.jpg	n/a	n/a	156.028	159.759	160.028	n/a
30	1	4	31	159.993	4	rest.jpg	n/a	n/a	159.993	163.728	163.993	n/a
30	1	4	32	163.976	4	rest.jpg	n/a	n/a	163.976	167.709	167.976	n/a
30	1	5	33	167.969	4	Aircraft1_90%_3.jpg	0	0.9	167.969	171.706	171.243	0
30	1	5	34	171.986	4	Aircraft2_90%_28.jpg	1	0.9	171.986	175.72	175.509	1
30	1	5	35	175.999	4	Aircraft1_90%_24.jpg	0	0.9	175.999	179.736	179.474	0
30	1	5	36	180.018	4	Aircraft2_90%_39.jpg	1	0.9	180.018	183.748	184.018	1
30	1	5	37	184.01	4	Aircraft2_90%_8.jpg	1	0.9	184.01	187.747	186.121	1
30	1	5	38	188.031	4	rest.jpg	n/a	n/a	188.031	191.761	192.031	n/a
30	1	5	39	192.011	4	rest.jpg	n/a	n/a	192.011	195.744	196.011	n/a
30	1	5	40	195.99	4	rest.jpg	n/a	n/a	195.99	199.722	199.99	n/a
30	1	6	41	200.012	4	Aircraft2_70%_18.jpg	1	0.75	200.012	203.742	202.265	1
30	1	6	42	204.035	4	Aircraft1_70%_29.jpg	0	0.75	204.035	207.776	205.678	0
30	1	6	43	208.058	4	Aircraft2_70%_1.jpg	1	0.75	208.058	211.794	210.262	1
30	1	6	44	212.06	4	Aircraft1_70%_26.jpg	0	0.75	212.06	215.792	214.854	0
30	1	6	45	216.061	4	Aircraft2_70%_34.jpg	1	0.75	216.061	219.791	218.934	1
30	1	6	46	220.058	4	rest.jpg	n/a	n/a	220.058	223.793	224.058	n/a
30	1	6	47	224.037	4	rest.jpg	n/a	n/a	224.037	227.772	228.037	n/a
30	1	6	48	228.021	4	rest.jpg	n/a	n/a	228.021	231.752	232.021	n/a
30	1	7	49	232.016	4	Aircraft2_10%_17.jpg	1	0.1	232.016	235.748	234.038	1
30	1	7	50	236.035	4	Aircraft2_10%_11.jpg	1	0.1	236.035	239.764	238.81	1
30	1	7	51	240.048	4	Aircraft1_10%_20.jpg	0	0.1	240.048	243.78	241.257	0
30	1	7	52	244.046	4	Aircraft2_10%_47.jpg	1	0.1	244.046	247.784	245.208	1
30	1	7	53	248.066	4	Aircraft2_10%_45.jpg	1	0.1	248.066	251.801	250.062	1
30	1	7	54	252.068	4	rest.jpg	n/a	n/a	252.068	255.8	256.068	n/a
30	1	7	55	256.031	4	rest.jpg	n/a	n/a	256.031	259.768	260.031	n/a
30	1	7	56	260.018	4	rest.jpg	n/a	n/a	260.018	263.756	264.018	n/a
30	1	8	57	264.036	4	Aircraft1_90%_25.jpg	0	0.9	264.036	267.774	265.614	0
30	1	8	58	268.052	4	Aircraft2_90%_49.jpg	1	0.9	268.052	271.785	271.004	1
30	1	8	59	272.046	4	Aircraft2_90%_10.jpg	1	0.9	272.046	275.785	274.126	1
30	1	8	60	276.044	4	Aircraft2_90%_12.jpg	1	0.9	276.044	279.775	277.684	1
30	1	8	61	280.034	4	Aircraft2_90%_7.jpg	1	0.9	280.034	283.769	284.034	1
30	1	8	62	284.04	4	rest.jpg	n/a	n/a	284.04	287.773	288.04	n/a
30	1	8	63	288.005	4	rest.jpg	n/a	n/a	288.005	291.735	292.005	n/a
30	1	8	64	291.967	4	rest.jpg	n/a	n/a	291.967	295.698	295.967	n/a
30	1	9	65	295.976	4	Aircraft1_70%_32.jpg	0	0.75	295.976	299.71	298.293	0
30	1	9	66	299.976	4	Aircraft1_70%_49.jpg	0	0.75	299.976	303.713	302.631	0
30	1	9	67	303.975	4	Aircraft2_70%_22.jpg	1	0.75	303.975	307.707	305.755	1
30	1	9	68	307.993	4	Aircraft1_70%_34.jpg	0	0.75	307.993	311.73	310.622	0
30	1	9	69	312.011	4	Aircraft1_70%_14.jpg	0	0.75	312.011	315.742	314.724	0
30	1	9	70	316.004	4	rest.jpg	n/a	n/a	316.004	319.737	320.004	n/a
30	1	9	71	319.987	4	rest.jpg	n/a	n/a	319.987	323.724	323.987	n/a
30	1	9	72	323.973	4	rest.jpg	n/a	n/a	323.973	327.711	327.973	n/a
30	1	10	73	327.993	4	Aircraft1_10%_1.jpg	0	0.1	327.993	331.725	329.744	0
30	1	10	74	331.988	4	Aircraft1_10%_47.jpg	0	0.1	331.988	335.719	334.235	0
30	1	10	75	335.987	4	Aircraft1_10%_40.jpg	0	0.1	335.987	339.719	338.429	0
30	1	10	76	340.007	4	Aircraft1_10%_27.jpg	0	0.1	340.007	343.743	341.959	0
30	1	10	77	344.005	4	Aircraft2_10%_35.jpg	1	0.1	344.005	347.743	345.243	1
30	1	10	78	348.026	4	rest.jpg	n/a	n/a	348.026	351.757	352.026	n/a
30	1	10	79	351.987	4	rest.jpg	n/a	n/a	351.987	355.722	355.987	n/a
30	1	10	80	355.952	4	rest.jpg	n/a	n/a	355.952	359.684	359.952	n/a
30	1	11	81	359.945	4	Aircraft1_90%_32.jpg	0	0.9	359.945	363.684	361.9	0
30	1	11	82	363.944	4	Aircraft1_90%_49.jpg	0	0.9	363.944	367.675	365.639	0
30	1	11	83	367.955	4	Aircraft2_90%_22.jpg	1	0.9	367.955	371.694	371.028	1
30	1	11	84	371.976	4	Aircraft1_90%_34.jpg	0	0.9	371.976	375.708	374.386	0
30	1	11	85	375.983	4	Aircraft1_90%_14.jpg	0	0.9	375.983	379.718	378.717	0
30	1	11	86	379.98	4	rest.jpg	n/a	n/a	379.98	383.71	383.98	n/a
30	1	11	87	383.94	4	rest.jpg	n/a	n/a	383.94	387.675	387.94	n/a
30	1	11	88	387.905	4	rest.jpg	n/a	n/a	387.905	391.637	391.905	n/a
30	1	12	89	391.899	4	Aircraft2_70%_24.jpg	1	0.75	391.899	395.629	394.147	1
30	1	12	90	395.892	4	Aircraft2_70%_2.jpg	1	0.75	395.892	399.63	397.753	1
30	1	12	91	399.895	4	Aircraft2_70%_43.jpg	1	0.75	399.895	403.63	402.052	1
30	1	12	92	403.915	4	Aircraft2_70%_46.jpg	1	0.75	403.915	407.651	407.189	1
30	1	12	93	407.934	4	Aircraft1_70%_42.jpg	0	0.75	407.934	411.666	411.045	0
30	1	12	94	411.933	4	rest.jpg	n/a	n/a	411.933	415.662	415.933	n/a
30	1	12	95	415.891	4	rest.jpg	n/a	n/a	415.891	419.621	419.891	n/a
30	1	12	96	419.852	4	rest.jpg	n/a	n/a	419.852	423.582	423.852	n/a
30	1	13	97	423.865	4	Aircraft2_10%_30.jpg	1	0.1	423.865	427.6	426.137	1
30	1	13	98	427.864	4	Aircraft2_10%_27.jpg	1	0.1	427.864	431.6	429.9	1
30	1	13	99	431.881	4	Aircraft2_10%_50.jpg	1	0.1	431.881	435.617	433.849	1
30	1	13	100	435.888	4	Aircraft2_10%_29.jpg	1	0.1	435.888	439.62	438.629	1
30	1	13	101	439.906	4	Aircraft1_10%_6.jpg	0	0.1	439.906	443.641	441.134	0
30	1	13	102	443.927	4	rest.jpg	n/a	n/a	443.927	447.657	447.927	n/a
30	1	13	103	447.889	4	rest.jpg	n/a	n/a	447.889	451.625	451.889	n/a
30	1	13	104	451.872	4	rest.jpg	n/a	n/a	451.872	455.604	455.872	n/a
30	1	14	105	455.863	4	Aircraft2_90%_18.jpg	1	0.9	455.863	459.593	458.053	1
30	1	14	106	459.854	4	Aircraft1_90%_29.jpg	0	0.9	459.854	463.589	462.692	0
30	1	14	107	463.87	4	Aircraft2_90%_1.jpg	1	0.9	463.87	467.602	466.777	1
30	1	14	108	467.885	4	Aircraft1_90%_26.jpg	0	0.9	467.885	471.637	471.532	0
30	1	14	109	471.898	4	Aircraft2_90%_34.jpg	1	0.9	471.898	475.633	474.681	1
30	1	14	110	475.915	4	rest.jpg	n/a	n/a	475.915	479.65	479.915	n/a
30	1	14	111	479.897	4	rest.jpg	n/a	n/a	479.897	483.634	483.897	n/a
30	1	14	112	483.866	4	rest.jpg	n/a	n/a	483.866	487.597	487.866	n/a
30	1	15	113	487.879	4	Aircraft1_70%_17.jpg	0	0.75	487.879	491.609	490.654	0
30	1	15	114	491.874	4	Aircraft2_70%_42.jpg	1	0.75	491.874	495.606	493.053	1
30	1	15	115	495.889	4	Aircraft2_70%_44.jpg	1	0.75	495.889	499.627	498.207	1
30	1	15	116	499.893	4	Aircraft1_70%_10.jpg	0	0.75	499.893	503.626	502.063	0
30	1	15	117	503.892	4	Aircraft2_70%_25.jpg	1	0.75	503.892	507.623	505.851	1
30	1	15	118	507.887	4	rest.jpg	n/a	n/a	507.887	511.617	511.887	n/a
30	1	15	119	511.849	4	rest.jpg	n/a	n/a	511.849	515.582	515.849	n/a
30	1	15	120	515.815	4	rest.jpg	n/a	n/a	515.815	519.546	519.815	n/a
30	1	16	121	519.814	4	Aircraft1_10%_38.jpg	0	0.1	519.814	523.543	521.974	0
30	1	16	122	523.826	4	Aircraft2_10%_21.jpg	1	0.1	523.826	527.561	526.764	1
30	1	16	123	527.829	4	Aircraft1_10%_16.jpg	0	0.1	527.829	531.559	529.18	0
30	1	16	124	531.844	4	Aircraft1_10%_46.jpg	0	0.1	531.844	535.582	533.251	0
30	1	16	125	535.846	4	Aircraft2_10%_40.jpg	1	0.1	535.846	539.578	538.477	1
30	1	16	126	539.845	4	rest.jpg	n/a	n/a	539.845	543.581	543.845	n/a
30	1	16	127	543.827	4	rest.jpg	n/a	n/a	543.827	547.559	547.827	n/a
30	1	16	128	547.808	4	rest.jpg	n/a	n/a	547.808	551.545	551.808	n/a
30	1	17	129	551.824	4	Aircraft2_90%_4.jpg	1	0.9	551.824	555.558	553.573	1
30	1	17	130	555.841	4	Aircraft1_90%_43.jpg	0	0.9	555.841	559.575	557.921	0
30	1	17	131	559.834	4	Aircraft1_90%_9.jpg	0	0.9	559.834	563.567	563.077	0
30	1	17	132	563.827	4	Aircraft1_90%_11.jpg	0	0.9	563.827	567.557	567.827	0
30	1	17	133	567.83	4	Aircraft1_90%_50.jpg	0	0.9	567.83	571.56	571.195	0
30	1	17	134	571.846	4	rest.jpg	n/a	n/a	571.846	575.583	575.846	n/a
30	1	17	135	575.832	4	rest.jpg	n/a	n/a	575.832	579.562	579.832	n/a
30	1	17	136	579.794	4	rest.jpg	n/a	n/a	579.794	583.524	583.794	n/a
30	1	18	137	583.79	4	Aircraft1_70%_12.jpg	0	0.75	583.79	587.52	585.005	0
30	1	18	138	587.808	4	Aircraft2_70%_32.jpg	1	0.75	587.808	591.54	590.625	1
30	1	18	139	591.802	4	Aircraft2_70%_48.jpg	1	0.75	591.802	595.534	594.224	1
30	1	18	140	595.801	4	Aircraft1_70%_19.jpg	0	0.75	595.801	599.533	597.352	0
30	1	18	141	599.812	4	Aircraft1_70%_33.jpg	0	0.75	599.812	603.549	601.606	0
30	1	18	142	603.815	4	rest.jpg	n/a	n/a	603.815	607.548	607.815	n/a
30	1	18	143	607.78	4	rest.jpg	n/a	n/a	607.78	611.517	611.78	n/a
30	1	18	144	611.749	4	rest.jpg	n/a	n/a	611.749	615.479	615.749	n/a
30	1	19	145	615.766	4	Aircraft2_10%_23.jpg	1	0.1	615.766	619.502	618.489	1
30	1	19	146	619.789	4	Aircraft1_10%_28.jpg	0	0.1	619.789	623.521	621.207	0
30	1	19	147	623.788	4	Aircraft2_10%_13.jpg	1	0.1	623.788	627.518	626.484	1
30	1	19	148	627.797	4	Aircraft1_10%_45.jpg	0	0.1	627.797	631.533	630.353	0
30	1	19	149	631.799	4	Aircraft1_10%_37.jpg	0	0.1	631.799	635.535	634.961	0
30	1	19	150	635.821	4	rest.jpg	n/a	n/a	635.821	639.553	639.821	n/a
30	1	19	151	639.797	4	rest.jpg	n/a	n/a	639.797	643.53	643.797	n/a
30	1	19	152	643.762	4	rest.jpg	n/a	n/a	643.762	647.498	647.762	n/a
30	1	20	153	647.772	4	Aircraft2_90%_33.jpg	1	0.9	647.772	651.502	649.356	1
30	1	20	154	651.766	4	Aircraft2_90%_38.jpg	1	0.9	651.766	655.496	653.134	1
30	1	20	155	655.757	4	Aircraft1_90%_30.jpg	0	0.9	655.757	659.487	656.559	0
30	1	20	156	659.769	4	Aircraft1_90%_41.jpg	0	0.9	659.769	663.501	661.817	0
30	1	20	157	663.78	4	Aircraft1_90%_18.jpg	0	0.9	663.78	667.515	665.249	0
30	1	20	158	667.784	4	rest.jpg	n/a	n/a	667.784	671.514	671.784	n/a
30	1	20	159	671.744	4	rest.jpg	n/a	n/a	671.744	675.481	675.744	n/a
30	1	20	160	675.711	4	rest.jpg	n/a	n/a	675.711	679.441	679.711	n/a
30	1	21	161	679.707	4	Aircraft2_70%_9.jpg	1	0.75	679.707	683.443	681.922	1
30	1	21	162	683.725	4	Aircraft2_70%_6.jpg	1	0.75	683.725	687.46	685.498	1
30	1	21	163	687.727	4	Aircraft1_70%_23.jpg	0	0.75	687.727	691.462	689.593	0
30	1	21	164	691.75	4	Aircraft1_70%_21.jpg	0	0.75	691.75	695.485	693.473	0
30	1	21	165	695.772	4	Aircraft2_70%_36.jpg	1	0.75	695.772	699.507	696.991	1
30	1	21	166	699.789	4	rest.jpg	n/a	n/a	699.789	703.519	703.789	n/a
30	1	21	167	703.751	4	rest.jpg	n/a	n/a	703.751	707.483	707.751	n/a
30	1	21	168	707.715	4	rest.jpg	n/a	n/a	707.715	711.452	711.715	n/a
30	1	22	169	711.74	4	Aircraft2_10%_41.jpg	1	0.1	711.74	715.478	712.913	1
30	1	22	170	715.752	4	Aircraft1_10%_22.jpg	0	0.1	715.752	719.484	716.567	0
30	1	22	171	719.771	4	Aircraft1_10%_44.jpg	0	0.1	719.771	723.502	721.774	0
30	1	22	172	723.773	4	Aircraft1_10%_1.jpg	0	0.1	723.773	727.51	726.085	0
30	1	22	173	727.774	4	Aircraft2_10%_37.jpg	1	0.1	727.774	731.504	729.617	1
30	1	22	174	731.767	4	rest.jpg	n/a	n/a	731.767	735.502	735.767	n/a
30	1	22	175	735.732	4	rest.jpg	n/a	n/a	735.732	739.462	739.732	n/a
30	1	22	176	739.71	4	rest.jpg	n/a	n/a	739.71	743.443	743.71	n/a
30	1	23	177	743.724	4	Aircraft2_90%_31.jpg	1	0.9	743.724	747.454	745.301	1
30	1	23	178	747.732	4	Aircraft1_90%_4.jpg	0	0.9	747.732	751.467	749.666	0
30	1	23	179	751.746	4	Aircraft2_90%_20.jpg	1	0.9	751.746	755.484	754.041	1
30	1	23	180	755.745	4	Aircraft1_90%_7.jpg	0	0.9	755.745	759.481	757.807	0
30	1	23	181	759.743	4	Aircraft1_90%_8.jpg	0	0.9	759.743	763.48	762.915	0
30	1	23	182	763.759	4	rest.jpg	n/a	n/a	763.759	767.489	767.759	n/a
30	1	23	183	767.738	4	rest.jpg	n/a	n/a	767.738	771.474	771.738	n/a
30	1	23	184	771.704	4	rest.jpg	n/a	n/a	771.704	775.434	775.704	n/a
30	1	24	185	775.7	4	Aircraft2_70%_14.jpg	1	0.75	775.7	779.435	777.224	1
30	1	24	186	779.7	4	Aircraft2_70%_5.jpg	1	0.75	779.7	783.43	781.721	1
30	1	24	187	783.709	4	Aircraft2_70%_15.jpg	1	0.75	783.709	787.439	785.254	1
30	1	24	188	787.72	4	Aircraft2_70%_19.jpg	1	0.75	787.72	791.45	789.262	1
30	1	24	189	791.74	4	Aircraft1_70%_31.jpg	0	0.75	791.74	795.47	792.74	0
30	1	24	190	795.734	4	rest.jpg	n/a	n/a	795.734	799.469	799.734	n/a
30	1	24	191	799.701	4	rest.jpg	n/a	n/a	799.701	803.43	803.701	n/a
30	1	24	192	803.662	4	rest.jpg	n/a	n/a	803.662	807.391	807.662	n/a
30	1	25	193	807.675	4	Aircraft2_10%_9.jpg	1	0.1	807.675	811.406	809.37	1
30	1	25	194	811.688	4	Aircraft2_10%_6.jpg	1	0.1	811.688	815.418	813.414	1
30	1	25	195	815.704	4	Aircraft1_10%_23.jpg	0	0.1	815.704	819.439	817.582	0
30	1	25	196	819.728	4	Aircraft1_10%_21.jpg	0	0.1	819.728	823.458	820.918	0
30	1	25	197	823.741	4	Aircraft2_10%_36.jpg	1	0.1	823.741	827.478	825.33	1
30	1	25	198	827.762	4	rest.jpg	n/a	n/a	827.762	831.495	831.762	n/a
30	1	25	199	831.744	4	rest.jpg	n/a	n/a	831.744	835.479	835.744	n/a
30	1	25	200	835.724	4	rest.jpg	n/a	n/a	835.724	839.457	839.724	n/a
30	1	26	201	839.718	4	Aircraft2_90%_24.jpg	1	0.9	839.718	843.454	841.992	1
30	1	26	202	843.713	4	Aircraft2_90%_2.jpg	1	0.9	843.713	847.448	846.389	1
30	1	26	203	847.719	4	Aircraft2_90%_43.jpg	1	0.9	847.719	851.456	849.967	1
30	1	26	204	851.721	4	Aircraft2_90%_46.jpg	1	0.9	851.721	855.451	853.272	1
30	1	26	205	855.726	4	Aircraft1_90%_42.jpg	0	0.9	855.726	859.456	857.225	0
30	1	26	206	859.739	4	rest.jpg	n/a	n/a	859.739	863.471	863.739	n/a
30	1	26	207	863.719	4	rest.jpg	n/a	n/a	863.719	867.449	867.719	n/a
30	1	26	208	867.681	4	rest.jpg	n/a	n/a	867.681	871.414	871.681	n/a
30	1	27	209	871.681	4	Aircraft1_70%_3.jpg	0	0.75	871.681	875.414	872.781	0
30	1	27	210	875.703	4	Aircraft2_70%_28.jpg	1	0.75	875.703	879.437	877.555	1
30	1	27	211	879.701	4	Aircraft1_70%_24.jpg	0	0.75	879.701	883.433	882.69	0
30	1	27	212	883.697	4	Aircraft2_70%_39.jpg	1	0.75	883.697	887.427	885.185	1
30	1	27	213	887.71	4	Aircraft2_70%_8.jpg	1	0.75	887.71	891.44	889.477	1
30	1	27	214	891.726	4	rest.jpg	n/a	n/a	891.726	895.456	895.726	n/a
30	1	27	215	895.687	4	rest.jpg	n/a	n/a	895.687	899.417	899.687	n/a
30	1	27	216	899.648	4	rest.jpg	n/a	n/a	899.648	903.385	903.648	n/a
30	1	28	217	903.665	4	Aircraft1_10%_12.jpg	0	0.1	903.665	907.398	904.76	0
30	1	28	218	907.67	4	Aircraft2_10%_32.jpg	1	0.1	907.67	911.4	909.384	1
30	1	28	219	911.682	4	Aircraft2_10%_48.jpg	1	0.1	911.682	915.417	912.85	1
30	1	28	220	915.702	4	Aircraft1_10%_19.jpg	0	0.1	915.702	919.439	916.566	0
30	1	28	221	919.701	4	Aircraft1_10%_33.jpg	0	0.1	919.701	923.433	920.578	0
30	1	28	222	923.697	4	rest.jpg	n/a	n/a	923.697	927.434	927.697	n/a
30	1	28	223	927.666	4	rest.jpg	n/a	n/a	927.666	931.398	931.666	n/a
30	1	28	224	931.647	4	rest.jpg	n/a	n/a	931.647	935.377	935.647	n/a
30	1	29	225	935.655	4	Aircraft1_90%_17.jpg	0	0.9	935.655	939.385	937.157	0
30	1	29	226	939.646	4	Aircraft2_90%_42.jpg	1	0.9	939.646	943.381	940.942	1
30	1	29	227	943.657	4	Aircraft2_90%_44.jpg	1	0.9	943.657	947.392	945.557	1
30	1	29	228	947.674	4	Aircraft1_90%_10.jpg	0	0.9	947.674	951.406	949.635	0
30	1	29	229	951.683	4	Aircraft2_90%_25.jpg	1	0.9	951.683	955.418	953.093	1
30	1	29	230	955.68	4	rest.jpg	n/a	n/a	955.68	959.415	959.68	n/a
30	1	29	231	959.645	4	rest.jpg	n/a	n/a	959.645	963.382	963.645	n/a
30	1	29	232	963.612	4	rest.jpg	n/a	n/a	963.612	967.349	967.612	n/a
30	1	30	233	967.612	4	Aircraft1_70%_25.jpg	0	0.75	967.612	971.345	969.352	0
30	1	30	234	971.607	4	Aircraft2_70%_49.jpg	1	0.75	971.607	975.346	974.036	1
30	1	30	235	975.608	4	Aircraft2_70%_10.jpg	1	0.75	975.608	979.338	977.231	1
30	1	30	236	979.608	4	Aircraft2_70%_12.jpg	1	0.75	979.608	983.338	981.459	1
30	1	30	237	983.618	4	Aircraft2_70%_7.jpg	1	0.75	983.618	987.348	985.832	1
30	1	30	238	987.61	4	rest.jpg	n/a	n/a	987.61	991.34	991.61	n/a
30	1	30	239	991.57	4	rest.jpg	n/a	n/a	991.57	995.306	995.57	n/a
30	1	30	240	995.538	4	rest.jpg	n/a	n/a	995.538	999.271	999.538	n/a
