sub	run	block	trail	oneset	duration	stim_file	stim_lable	level of occlusion	stim_started	stim_stopped	key_time	key_fix
61	2	1	1	40	4	Aircraft1_10%_17.jpg	0	0.1	40	43.739	41.06	0
61	2	1	2	44.015	4	Aircraft2_10%_42.jpg	1	0.1	44.015	47.748	44.689	1
61	2	1	3	48.034	4	Aircraft2_10%_44.jpg	1	0.1	48.034	51.774	48.667	1
61	2	1	4	52.069	4	Aircraft1_10%_10.jpg	0	0.1	52.069	55.8	52.867	0
61	2	1	5	56.085	4	Aircraft2_10%_25.jpg	1	0.1	56.085	59.816	56.988	1
61	2	1	6	60.107	4	rest.jpg	n/a	n/a	60.107	63.838	64.107	n/a
61	2	1	7	64.084	4	rest.jpg	n/a	n/a	64.084	67.818	68.084	n/a
61	2	1	8	68.072	4	rest.jpg	n/a	n/a	68.072	71.803	72.072	n/a
61	2	2	9	72.074	4	Aircraft1_90%_12.jpg	0	0.9	72.074	75.81	73.747	0
61	2	2	10	76.092	4	Aircraft2_90%_32.jpg	1	0.9	76.092	79.824	77.782	1
61	2	2	11	80.093	4	Aircraft2_90%_48.jpg	1	0.9	80.093	83.829	80.78	1
61	2	2	12	84.116	4	Aircraft1_90%_19.jpg	0	0.9	84.116	87.852	85.324	0
61	2	2	13	88.139	4	Aircraft1_90%_33.jpg	0	0.9	88.139	91.87	90.092	0
61	2	2	14	92.144	4	rest.jpg	n/a	n/a	92.144	95.873	96.144	n/a
61	2	2	15	96.122	4	rest.jpg	n/a	n/a	96.122	99.857	100.122	n/a
61	2	2	16	100.113	4	rest.jpg	n/a	n/a	100.113	103.844	104.113	n/a
61	2	3	17	104.121	4	Aircraft2_70%_33.jpg	1	0.75	104.121	107.85	105.438	1
61	2	3	18	108.142	4	Aircraft2_70%_38.jpg	1	0.75	108.142	111.871	109.195	1
61	2	3	19	112.159	4	Aircraft1_70%_30.jpg	0	0.75	112.159	115.889	115.023	0
61	2	3	20	116.166	4	Aircraft1_70%_41.jpg	0	0.75	116.166	119.896	118.813	0
61	2	3	21	120.187	4	Aircraft1_70%_18.jpg	0	0.75	120.187	123.922	121.046	0
61	2	3	22	124.209	4	rest.jpg	n/a	n/a	124.209	127.941	128.209	n/a
61	2	3	23	128.174	4	rest.jpg	n/a	n/a	128.174	131.91	132.174	n/a
61	2	3	24	132.158	4	rest.jpg	n/a	n/a	132.158	135.889	136.158	n/a
61	2	4	25	136.182	4	Aircraft2_10%_24.jpg	1	0.1	136.182	139.913	137.294	1
61	2	4	26	140.19	4	Aircraft2_10%_2.jpg	1	0.1	140.19	143.919	141.269	1
61	2	4	27	144.216	4	Aircraft2_10%_43.jpg	1	0.1	144.216	147.951	145.327	1
61	2	4	28	148.231	4	Aircraft2_10%_46.jpg	1	0.1	148.231	151.969	149.023	1
61	2	4	29	152.258	4	Aircraft1_10%_42.jpg	0	0.1	152.258	155.992	153.296	0
61	2	4	30	156.279	4	rest.jpg	n/a	n/a	156.279	160.013	160.279	n/a
61	2	4	31	160.259	4	rest.jpg	n/a	n/a	160.259	163.988	164.259	n/a
61	2	4	32	164.228	4	rest.jpg	n/a	n/a	164.228	167.958	168.228	n/a
61	2	5	33	168.229	4	Aircraft2_90%_9.jpg	1	0.9	168.229	171.96	169.525	1
61	2	5	34	172.247	4	Aircraft2_90%_6.jpg	1	0.9	172.247	175.979	174.154	1
61	2	5	35	176.248	4	Aircraft1_90%_23.jpg	0	0.9	176.248	179.982	177.668	0
61	2	5	36	180.271	4	Aircraft1_90%_21.jpg	0	0.9	180.271	184.006	182.237	0
61	2	5	37	184.275	4	Aircraft2_90%_36.jpg	1	0.9	184.275	188.006	186.728	1
61	2	5	38	188.278	4	rest.jpg	n/a	n/a	188.278	192.006	192.278	n/a
61	2	5	39	192.239	4	rest.jpg	n/a	n/a	192.239	195.971	196.239	n/a
61	2	5	40	196.206	4	rest.jpg	n/a	n/a	196.206	199.937	200.206	n/a
61	2	6	41	200.228	4	Aircraft2_70%_31.jpg	1	0.75	200.228	203.962	201.167	1
61	2	6	42	204.237	4	Aircraft1_70%_4.jpg	0	0.75	204.237	207.966	206.04	0
61	2	6	43	208.261	4	Aircraft2_70%_20.jpg	1	0.75	208.261	211.991	210.436	1
61	2	6	44	212.266	4	Aircraft1_70%_7.jpg	0	0.75	212.266	216.001	213.231	0
61	2	6	45	216.277	4	Aircraft1_70%_8.jpg	0	0.75	216.277	220.012	217.42	0
61	2	6	46	220.284	4	rest.jpg	n/a	n/a	220.284	224.019	224.284	n/a
61	2	6	47	224.271	4	rest.jpg	n/a	n/a	224.271	228.001	228.271	n/a
61	2	6	48	228.255	4	rest.jpg	n/a	n/a	228.255	231.986	232.255	n/a
61	2	7	49	232.261	4	Aircraft2_10%_31.jpg	1	0.1	232.261	235.995	233.739	1
61	2	7	50	236.289	4	Aircraft1_10%_4.jpg	0	0.1	236.289	240.024	237.02	0
61	2	7	51	240.306	4	Aircraft2_10%_20.jpg	1	0.1	240.306	244.037	241.29	1
61	2	7	52	244.313	4	Aircraft1_10%_7.jpg	0	0.1	244.313	248.044	245.329	0
61	2	7	53	248.335	4	Aircraft1_10%_8.jpg	0	0.1	248.335	252.07	249.328	0
61	2	7	54	252.358	4	rest.jpg	n/a	n/a	252.358	256.088	256.358	n/a
61	2	7	55	256.338	4	rest.jpg	n/a	n/a	256.338	260.07	260.338	n/a
61	2	7	56	260.304	4	rest.jpg	n/a	n/a	260.304	264.038	264.304	n/a
61	2	8	57	264.321	4	Aircraft2_90%_41.jpg	1	0.9	264.321	268.053	266.148	1
61	2	8	58	268.339	4	Aircraft1_90%_22.jpg	0	0.9	268.339	272.068	269.416	0
61	2	8	59	272.333	4	Aircraft1_90%_44.jpg	0	0.9	272.333	276.063	273.352	0
61	2	8	60	276.331	4	Aircraft1_90%_1.jpg	0	0.9	276.331	280.061	277.099	0
61	2	8	61	280.344	4	Aircraft2_90%_37.jpg	1	0.9	280.344	284.073	281.122	1
61	2	8	62	284.346	4	rest.jpg	n/a	n/a	284.346	288.076	288.346	n/a
61	2	8	63	288.324	4	rest.jpg	n/a	n/a	288.324	292.053	292.324	n/a
61	2	8	64	292.302	4	rest.jpg	n/a	n/a	292.302	296.036	296.302	n/a
61	2	9	65	296.308	4	Aircraft2_70%_41.jpg	1	0.75	296.308	300.036	297.443	1
61	2	9	66	300.308	4	Aircraft1_70%_22.jpg	0	0.75	300.308	304.046	301.406	0
61	2	9	67	304.329	4	Aircraft1_70%_44.jpg	0	0.75	304.329	308.058	305.803	0
61	2	9	68	308.348	4	Aircraft1_70%_1.jpg	0	0.75	308.348	312.077	309.42	0
61	2	9	69	312.364	4	Aircraft2_70%_37.jpg	1	0.75	312.364	316.1	313.478	1
61	2	9	70	316.37	4	rest.jpg	n/a	n/a	316.37	320.099	320.37	n/a
61	2	9	71	320.333	4	rest.jpg	n/a	n/a	320.333	324.062	324.333	n/a
61	2	9	72	324.311	4	rest.jpg	n/a	n/a	324.311	328.04	328.311	n/a
61	2	10	73	328.325	4	Aircraft2_10%_33.jpg	1	0.1	328.325	332.055	329.476	1
61	2	10	74	332.33	4	Aircraft2_10%_38.jpg	1	0.1	332.33	336.063	333.454	1
61	2	10	75	336.336	4	Aircraft1_10%_30.jpg	0	0.1	336.336	340.071	337.459	0
61	2	10	76	340.359	4	Aircraft1_10%_41.jpg	0	0.1	340.359	344.096	341.047	0
61	2	10	77	344.367	4	Aircraft1_10%_18.jpg	0	0.1	344.367	348.096	345.375	0
61	2	10	78	348.385	4	rest.jpg	n/a	n/a	348.385	352.121	352.385	n/a
61	2	10	79	352.37	4	rest.jpg	n/a	n/a	352.37	356.105	356.37	n/a
61	2	10	80	356.355	4	rest.jpg	n/a	n/a	356.355	360.086	360.355	n/a
61	2	11	81	360.353	4	Aircraft2_90%_23.jpg	1	0.9	360.353	364.085	361.956	1
61	2	11	82	364.409	4	Aircraft1_90%_28.jpg	0	0.9	364.409	368.145	366.176	0
61	2	11	83	368.427	4	Aircraft2_90%_13.jpg	1	0.9	368.427	372.156	369.688	1
61	2	11	84	372.44	4	Aircraft1_90%_45.jpg	0	0.9	372.44	376.174	373.485	0
61	2	11	85	376.455	4	Aircraft1_90%_37.jpg	0	0.9	376.455	380.187	378.609	0
61	2	11	86	380.476	4	rest.jpg	n/a	n/a	380.476	384.207	384.476	n/a
61	2	11	87	384.439	4	rest.jpg	n/a	n/a	384.439	388.168	388.439	n/a
61	2	11	88	388.418	4	rest.jpg	n/a	n/a	388.418	392.154	392.418	n/a
61	2	12	89	392.438	4	Aircraft1_70%_2.jpg	0	0.75	392.438	396.167	393.536	0
61	2	12	90	396.443	4	Aircraft1_70%_39.jpg	0	0.75	396.443	400.177	397.99	0
61	2	12	91	400.471	4	Aircraft2_70%_26.jpg	1	0.75	400.471	404.2	402.916	1
61	2	12	92	404.494	4	Aircraft1_70%_15.jpg	0	0.75	404.494	408.228	405.598	0
61	2	12	93	408.501	4	Aircraft2_70%_16.jpg	1	0.75	408.501	412.23	409.63	1
61	2	12	94	412.517	4	rest.jpg	n/a	n/a	412.517	416.246	416.517	n/a
61	2	12	95	416.495	4	rest.jpg	n/a	n/a	416.495	420.226	420.495	n/a
61	2	12	96	420.46	4	rest.jpg	n/a	n/a	420.46	424.189	424.46	n/a
61	2	13	97	424.477	4	Aircraft2_10%_4.jpg	1	0.1	424.477	428.206	425.645	1
61	2	13	98	428.482	4	Aircraft1_10%_43.jpg	0	0.1	428.482	432.213	429.32	0
61	2	13	99	432.505	4	Aircraft1_10%_9.jpg	0	0.1	432.505	436.234	433.485	0
61	2	13	100	436.531	4	Aircraft1_10%_11.jpg	0	0.1	436.531	440.267	437.541	0
61	2	13	101	440.538	4	Aircraft1_10%_50.jpg	0	0.1	440.538	444.267	441.622	0
61	2	13	102	444.573	4	rest.jpg	n/a	n/a	444.573	448.308	448.573	n/a
61	2	13	103	448.54	4	rest.jpg	n/a	n/a	448.54	452.274	452.54	n/a
61	2	13	104	452.508	4	rest.jpg	n/a	n/a	452.508	456.24	456.508	n/a
61	2	14	105	456.525	4	Aircraft1_90%_38.jpg	0	0.9	456.525	460.261	458.766	0
61	2	14	106	460.529	4	Aircraft2_90%_21.jpg	1	0.9	460.529	464.26	461.65	1
61	2	14	107	464.548	4	Aircraft1_90%_16.jpg	0	0.9	464.548	468.279	466.81	0
61	2	14	108	468.547	4	Aircraft1_90%_46.jpg	0	0.9	468.547	472.278	471.357	0
61	2	14	109	472.56	4	Aircraft2_90%_40.jpg	1	0.9	472.56	476.29	473.942	1
61	2	14	110	476.58	4	rest.jpg	n/a	n/a	476.58	480.317	480.58	n/a
61	2	14	111	480.561	4	rest.jpg	n/a	n/a	480.561	484.29	484.561	n/a
61	2	14	112	484.539	4	rest.jpg	n/a	n/a	484.539	488.274	488.539	n/a
61	2	15	113	488.561	4	Aircraft1_70%_36.jpg	0	0.75	488.561	492.298	490.089	0
61	2	15	114	492.59	4	Aircraft1_70%_35.jpg	0	0.75	492.59	496.324	493.813	0
61	2	15	115	496.598	4	Aircraft2_70%_3.jpg	1	0.75	496.598	500.332	497.443	1
61	2	15	116	500.638	4	Aircraft1_70%_5.jpg	0	0.75	500.638	504.373	503.476	0
61	2	15	117	504.648	4	Aircraft1_70%_48.jpg	0	0.75	504.648	508.377	507.501	0
61	2	15	118	508.668	4	rest.jpg	n/a	n/a	508.668	512.396	512.668	n/a
61	2	15	119	512.644	4	rest.jpg	n/a	n/a	512.644	516.378	516.644	n/a
61	2	15	120	516.61	4	rest.jpg	n/a	n/a	516.61	520.342	520.61	n/a
61	2	16	121	520.611	4	Aircraft2_10%_18.jpg	1	0.1	520.611	524.345	521.918	1
61	2	16	122	524.639	4	Aircraft1_10%_29.jpg	0	0.1	524.639	528.374	526.006	0
61	2	16	123	528.658	4	Aircraft2_10%_1.jpg	1	0.1	528.658	532.387	529.855	1
61	2	16	124	532.68	4	Aircraft1_10%_26.jpg	0	0.1	532.68	536.409	533.63	0
61	2	16	125	536.68	4	Aircraft2_10%_34.jpg	1	0.1	536.68	540.411	537.828	1
61	2	16	126	540.7	4	rest.jpg	n/a	n/a	540.7	544.431	544.7	n/a
61	2	16	127	544.665	4	rest.jpg	n/a	n/a	544.665	548.396	548.665	n/a
61	2	16	128	548.628	4	rest.jpg	n/a	n/a	548.628	552.363	552.628	n/a
61	2	17	129	552.63	4	Aircraft2_90%_30.jpg	1	0.9	552.63	556.364	554.695	1
61	2	17	130	556.647	4	Aircraft2_90%_27.jpg	1	0.9	556.647	560.377	557.58	1
61	2	17	131	560.654	4	Aircraft2_90%_50.jpg	1	0.9	560.654	564.389	562.294	1
61	2	17	132	564.672	4	Aircraft2_90%_29.jpg	1	0.9	564.672	568.401	565.587	1
61	2	17	133	568.671	4	Aircraft1_90%_6.jpg	0	0.9	568.671	572.401	569.925	0
61	2	17	134	572.691	4	rest.jpg	n/a	n/a	572.691	576.42	576.691	n/a
61	2	17	135	576.654	4	rest.jpg	n/a	n/a	576.654	580.388	580.654	n/a
61	2	17	136	580.636	4	rest.jpg	n/a	n/a	580.636	584.364	584.636	n/a
61	2	18	137	584.634	4	Aircraft2_70%_17.jpg	1	0.75	584.634	588.365	585.635	1
61	2	18	138	588.651	4	Aircraft2_70%_11.jpg	1	0.75	588.651	592.386	590.07	1
61	2	18	139	592.655	4	Aircraft1_70%_20.jpg	0	0.75	592.655	596.389	593.554	0
61	2	18	140	596.669	4	Aircraft2_70%_47.jpg	1	0.75	596.669	600.4	598.083	1
61	2	18	141	600.673	4	Aircraft2_70%_45.jpg	1	0.75	600.673	604.405	601.491	1
61	2	18	142	604.676	4	rest.jpg	n/a	n/a	604.676	608.411	608.676	n/a
61	2	18	143	608.645	4	rest.jpg	n/a	n/a	608.645	612.377	612.645	n/a
61	2	18	144	612.611	4	rest.jpg	n/a	n/a	612.611	616.343	616.611	n/a
61	2	19	145	616.62	4	Aircraft1_10%_32.jpg	0	0.1	616.62	620.355	617.664	0
61	2	19	146	620.63	4	Aircraft1_10%_49.jpg	0	0.1	620.63	624.361	621.485	0
61	2	19	147	624.649	4	Aircraft2_10%_22.jpg	1	0.1	624.649	628.384	625.469	1
61	2	19	148	628.675	4	Aircraft1_10%_34.jpg	0	0.1	628.675	632.407	629.458	0
61	2	19	149	632.698	4	Aircraft1_10%_14.jpg	0	0.1	632.698	636.429	634.223	0
61	2	19	150	636.716	4	rest.jpg	n/a	n/a	636.716	640.446	640.716	n/a
61	2	19	151	640.68	4	rest.jpg	n/a	n/a	640.68	644.411	644.68	n/a
61	2	19	152	644.659	4	rest.jpg	n/a	n/a	644.659	648.394	648.659	n/a
61	2	20	153	648.661	4	Aircraft1_90%_1.jpg	0	0.9	648.661	652.395	650.015	0
61	2	20	154	652.704	4	Aircraft1_90%_47.jpg	0	0.9	652.704	656.432	655.244	0
61	2	20	155	656.699	4	Aircraft1_90%_40.jpg	0	0.9	656.699	660.433	657.641	0
61	2	20	156	660.714	4	Aircraft1_90%_27.jpg	0	0.9	660.714	664.445	662.749	0
61	2	20	157	664.713	4	Aircraft2_90%_35.jpg	1	0.9	664.713	668.449	666.64	1
61	2	20	158	668.719	4	rest.jpg	n/a	n/a	668.719	672.453	672.719	n/a
61	2	20	159	672.688	4	rest.jpg	n/a	n/a	672.688	676.424	676.688	n/a
61	2	20	160	676.657	4	rest.jpg	n/a	n/a	676.657	680.389	680.657	n/a
61	2	21	161	680.663	4	Aircraft2_70%_23.jpg	1	0.75	680.663	684.399	681.753	1
61	2	21	162	684.687	4	Aircraft1_70%_28.jpg	0	0.75	684.687	688.417	685.632	0
61	2	21	163	688.691	4	Aircraft2_70%_13.jpg	1	0.75	688.691	692.419	689.508	1
61	2	21	164	692.709	4	Aircraft1_70%_45.jpg	0	0.75	692.709	696.44	693.668	0
61	2	21	165	696.728	4	Aircraft1_70%_37.jpg	0	0.75	696.728	700.462	697.669	0
61	2	21	166	700.733	4	rest.jpg	n/a	n/a	700.733	704.467	704.733	n/a
61	2	21	167	704.715	4	rest.jpg	n/a	n/a	704.715	708.451	708.715	n/a
61	2	21	168	708.685	4	rest.jpg	n/a	n/a	708.685	712.419	712.685	n/a
61	2	22	169	712.707	4	Aircraft1_10%_25.jpg	0	0.1	712.707	716.441	713.71	0
61	2	22	170	716.731	4	Aircraft2_10%_49.jpg	1	0.1	716.731	720.462	717.519	1
61	2	22	171	720.737	4	Aircraft2_10%_10.jpg	1	0.1	720.737	724.472	721.636	1
61	2	22	172	724.766	4	Aircraft2_10%_12.jpg	1	0.1	724.766	728.495	725.61	1
61	2	22	173	728.779	4	Aircraft2_10%_7.jpg	1	0.1	728.779	732.508	729.487	1
61	2	22	174	732.795	4	rest.jpg	n/a	n/a	732.795	736.524	736.795	n/a
61	2	22	175	736.758	4	rest.jpg	n/a	n/a	736.758	740.487	740.758	n/a
61	2	22	176	740.737	4	rest.jpg	n/a	n/a	740.737	744.466	744.737	n/a
61	2	23	177	744.749	4	Aircraft2_90%_17.jpg	1	0.9	744.749	748.485	746.316	1
61	2	23	178	748.77	4	Aircraft2_90%_11.jpg	1	0.9	748.77	752.502	750.653	1
61	2	23	179	752.769	4	Aircraft1_90%_20.jpg	0	0.9	752.769	756.505	754.037	0
61	2	23	180	756.792	4	Aircraft2_90%_47.jpg	1	0.9	756.792	760.524	757.523	1
61	2	23	181	760.806	4	Aircraft2_90%_45.jpg	1	0.9	760.806	764.535	761.722	1
61	2	23	182	764.807	4	rest.jpg	n/a	n/a	764.807	768.537	768.807	n/a
61	2	23	183	768.771	4	rest.jpg	n/a	n/a	768.771	772.5	772.771	n/a
61	2	23	184	772.75	4	rest.jpg	n/a	n/a	772.75	776.485	776.75	n/a
61	2	24	185	776.753	4	Aircraft1_70%_38.jpg	0	0.75	776.753	780.487	777.607	0
61	2	24	186	780.771	4	Aircraft2_70%_21.jpg	1	0.75	780.771	784.502	781.475	1
61	2	24	187	784.791	4	Aircraft1_70%_16.jpg	0	0.75	784.791	788.521	786.037	0
61	2	24	188	788.812	4	Aircraft1_70%_46.jpg	0	0.75	788.812	792.544	790.836	0
61	2	24	189	792.817	4	Aircraft2_70%_40.jpg	1	0.75	792.817	796.545	793.634	1
61	2	24	190	796.826	4	rest.jpg	n/a	n/a	796.826	800.562	800.826	n/a
61	2	24	191	800.804	4	rest.jpg	n/a	n/a	800.804	804.535	804.804	n/a
61	2	24	192	804.782	4	rest.jpg	n/a	n/a	804.782	808.517	808.782	n/a
61	2	25	193	808.792	4	Aircraft1_10%_3.jpg	0	0.1	808.792	812.521	809.727	0
61	2	25	194	812.791	4	Aircraft2_10%_28.jpg	1	0.1	812.791	816.522	813.514	1
61	2	25	195	816.808	4	Aircraft1_10%_24.jpg	0	0.1	816.808	820.542	817.531	0
61	2	25	196	820.831	4	Aircraft2_10%_39.jpg	1	0.1	820.831	824.568	821.823	1
61	2	25	197	824.86	4	Aircraft2_10%_8.jpg	1	0.1	824.86	828.589	825.835	1
61	2	25	198	828.88	4	rest.jpg	n/a	n/a	828.88	832.608	832.88	n/a
61	2	25	199	832.84	4	rest.jpg	n/a	n/a	832.84	836.572	836.84	n/a
61	2	25	200	836.804	4	rest.jpg	n/a	n/a	836.804	840.535	840.804	n/a
61	2	26	201	840.8	4	Aircraft1_90%_36.jpg	0	0.9	840.8	844.529	842.5	0
61	2	26	202	844.814	4	Aircraft1_90%_35.jpg	0	0.9	844.814	848.543	846.693	0
61	2	26	203	848.827	4	Aircraft2_90%_3.jpg	1	0.9	848.827	852.556	850.286	1
61	2	26	204	852.842	4	Aircraft1_90%_5.jpg	0	0.9	852.842	856.577	854.236	0
61	2	26	205	856.844	4	Aircraft1_90%_48.jpg	0	0.9	856.844	860.573	858.309	0
61	2	26	206	860.861	4	rest.jpg	n/a	n/a	860.861	864.597	864.861	n/a
61	2	26	207	864.846	4	rest.jpg	n/a	n/a	864.846	868.579	868.846	n/a
61	2	26	208	868.811	4	rest.jpg	n/a	n/a	868.811	872.542	872.811	n/a
61	2	27	209	872.829	4	Aircraft2_70%_30.jpg	1	0.75	872.829	876.564	874.21	1
61	2	27	210	876.838	4	Aircraft2_70%_27.jpg	1	0.75	876.838	880.569	877.947	1
61	2	27	211	880.838	4	Aircraft2_70%_50.jpg	1	0.75	880.838	884.573	882.227	1
61	2	27	212	884.865	4	Aircraft2_70%_29.jpg	1	0.75	884.865	888.599	885.927	1
61	2	27	213	888.894	4	Aircraft1_70%_6.jpg	0	0.75	888.894	892.63	890.649	0
61	2	27	214	892.915	4	rest.jpg	n/a	n/a	892.915	896.644	896.915	n/a
61	2	27	215	896.878	4	rest.jpg	n/a	n/a	896.878	900.608	900.878	n/a
61	2	27	216	900.854	4	rest.jpg	n/a	n/a	900.854	904.589	904.854	n/a
61	2	28	217	904.862	4	Aircraft2_10%_14.jpg	1	0.1	904.862	908.594	905.749	1
61	2	28	218	908.881	4	Aircraft2_10%_5.jpg	1	0.1	908.881	912.616	909.935	1
61	2	28	219	912.908	4	Aircraft2_10%_15.jpg	1	0.1	912.908	916.643	914.277	1
61	2	28	220	916.917	4	Aircraft2_10%_19.jpg	1	0.1	916.917	920.651	918.494	1
61	2	28	221	920.943	4	Aircraft1_10%_31.jpg	0	0.1	920.943	924.672	922.031	0
61	2	28	222	924.961	4	rest.jpg	n/a	n/a	924.961	928.69	928.961	n/a
61	2	28	223	928.924	4	rest.jpg	n/a	n/a	928.924	932.654	932.924	n/a
61	2	28	224	932.888	4	rest.jpg	n/a	n/a	932.888	936.622	936.888	n/a
61	2	29	225	936.904	4	Aircraft1_90%_2.jpg	0	0.9	936.904	940.632	938.624	0
61	2	29	226	940.918	4	Aircraft1_90%_39.jpg	0	0.9	940.918	944.647	941.827	0
61	2	29	227	944.916	4	Aircraft2_90%_26.jpg	1	0.9	944.916	948.647	945.69	1
61	2	29	228	948.915	4	Aircraft1_90%_15.jpg	0	0.9	948.915	952.644	949.843	0
61	2	29	229	952.927	4	Aircraft2_90%_16.jpg	1	0.9	952.927	956.662	954.153	1
61	2	29	230	956.952	4	rest.jpg	n/a	n/a	956.952	960.683	960.952	n/a
61	2	29	231	960.931	4	rest.jpg	n/a	n/a	960.931	964.665	964.931	n/a
61	2	29	232	964.915	4	rest.jpg	n/a	n/a	964.915	968.651	968.915	n/a
61	2	30	233	968.924	4	Aircraft1_70%_1.jpg	0	0.75	968.924	972.653	970.223	0
61	2	30	234	972.945	4	Aircraft1_70%_47.jpg	0	0.75	972.945	976.673	975.374	0
61	2	30	235	976.945	4	Aircraft1_70%_40.jpg	0	0.75	976.945	980.681	978.029	0
61	2	30	236	980.967	4	Aircraft1_70%_27.jpg	0	0.75	980.967	984.696	981.861	0
61	2	30	237	984.978	4	Aircraft2_70%_35.jpg	1	0.75	984.978	988.712	985.737	1
61	2	30	238	988.983	4	rest.jpg	n/a	n/a	988.983	992.712	992.983	n/a
61	2	30	239	992.961	4	rest.jpg	n/a	n/a	992.961	996.69	996.961	n/a
61	2	30	240	996.924	4	rest.jpg	n/a	n/a	996.924	1000.655	1000.924	n/a
