onset	duration	stim_file	stim_lable	levelOfOcclusion	stim_started	stim_stopped	key_time	key_fix	stim_started_1	stim_stopped_1	key_time_1	key_fix_1
39.999	4	Aircraft1_10%_2.jpg	0	0.1	39.999	43.738	41.588	0	39.999	43.738	41.588	0
44.022	4	Aircraft1_10%_39.jpg	0	0.1	44.022	47.758	45.951	0	44.022	47.758	45.951	0
48.029	4	Aircraft2_10%_26.jpg	1	0.1	48.029	51.769	48.889	1	48.029	51.769	48.889	1
52.065	4	Aircraft1_10%_15.jpg	0	0.1	52.065	55.802	53.38	0	52.065	55.802	53.38	0
56.08	4	Aircraft2_10%_16.jpg	1	0.1	56.08	59.811	57.289	1	56.08	59.811	57.289	1
60.098	4	rest.jpg	NaN	NaN	60.098	63.831	64.098	NaN	60.098	63.831	64.098	NaN
64.067	4	rest.jpg	NaN	NaN	64.067	67.797	68.067	NaN	64.067	67.797	68.067	NaN
68.043	4	rest.jpg	NaN	NaN	68.043	71.775	72.043	NaN	68.043	71.775	72.043	NaN
72.041	4	Aircraft2_90%_14.jpg	1	0.9	72.041	75.779	74.033	1	72.041	75.779	74.033	1
76.048	4	Aircraft2_90%_5.jpg	1	0.9	76.048	79.78	78.237	1	76.048	79.78	78.237	1
80.068	4	Aircraft2_90%_15.jpg	1	0.9	80.068	83.798	83.031	1	80.068	83.798	83.031	1
84.078	4	Aircraft2_90%_19.jpg	1	0.9	84.078	87.813	85.606	1	84.078	87.813	85.606	1
88.085	4	Aircraft1_90%_31.jpg	0	0.9	88.085	91.818	89.989	0	88.085	91.818	89.989	0
92.109	4	rest.jpg	NaN	NaN	92.109	95.839	96.109	NaN	92.109	95.839	96.109	NaN
96.091	4	rest.jpg	NaN	NaN	96.091	99.827	100.091	NaN	96.091	99.827	100.091	NaN
100.076	4	rest.jpg	NaN	NaN	100.076	103.808	104.076	NaN	100.076	103.808	104.076	NaN
104.105	4	Aircraft2_70%_4.jpg	1	0.75	104.105	107.837	105.592	1	104.105	107.837	105.592	1
108.13	4	Aircraft1_70%_43.jpg	0	0.75	108.13	111.862	110.594	0	108.13	111.862	110.594	0
112.143	4	Aircraft1_70%_9.jpg	0	0.75	112.143	115.873	115.06	0	112.143	115.873	115.06	0
116.17	4	Aircraft1_70%_11.jpg	0	0.75	116.17	119.902	120.17	0	116.17	119.902	120.17	0
120.182	4	Aircraft1_70%_50.jpg	0	0.75	120.182	123.914	122.325	0	120.182	123.914	122.325	0
124.204	4	rest.jpg	NaN	NaN	124.204	127.94	128.204	NaN	124.204	127.94	128.204	NaN
128.191	4	rest.jpg	NaN	NaN	128.191	131.921	132.191	NaN	128.191	131.921	132.191	NaN
132.174	4	rest.jpg	NaN	NaN	132.174	135.909	136.174	NaN	132.174	135.909	136.174	NaN
136.183	4	Aircraft1_10%_36.jpg	0	0.1	136.183	139.913	138.846	0	136.183	139.913	138.846	0
140.19	4	Aircraft1_10%_35.jpg	0	0.1	140.19	143.92	141.277	0	140.19	143.92	141.277	0
144.191	4	Aircraft2_10%_3.jpg	1	0.1	144.191	147.927	145.062	1	144.191	147.927	145.062	1
148.208	4	Aircraft1_10%_5.jpg	0	0.1	148.208	151.938	150.042	0	148.208	151.938	150.042	0
152.216	4	Aircraft1_10%_48.jpg	0	0.1	152.216	155.946	154.069	0	152.216	155.946	154.069	0
156.235	4	rest.jpg	NaN	NaN	156.235	159.965	160.235	NaN	156.235	159.965	160.235	NaN
160.218	4	rest.jpg	NaN	NaN	160.218	163.95	164.218	NaN	160.218	163.95	164.218	NaN
164.204	4	rest.jpg	NaN	NaN	164.204	167.941	168.204	NaN	164.204	167.941	168.204	NaN
168.227	4	Aircraft1_90%_3.jpg	0	0.9	168.227	171.962	171.454	0	168.227	171.962	171.454	0
172.235	4	Aircraft2_90%_28.jpg	1	0.9	172.235	175.968	174.504	1	172.235	175.968	174.504	1
176.251	4	Aircraft1_90%_24.jpg	0	0.9	176.251	179.986	180.251	0	176.251	179.986	180.251	0
180.27	4	Aircraft2_90%_39.jpg	1	0.9	180.27	184.005	181.163	1	180.27	184.005	181.163	1
184.29	4	Aircraft2_90%_8.jpg	1	0.9	184.29	188.021	185.888	1	184.29	188.021	185.888	1
188.295	4	rest.jpg	NaN	NaN	188.295	192.025	192.295	NaN	188.295	192.025	192.295	NaN
192.269	4	rest.jpg	NaN	NaN	192.269	196.001	196.269	NaN	192.269	196.001	196.269	NaN
196.253	4	rest.jpg	NaN	NaN	196.253	199.983	200.253	NaN	196.253	199.983	200.253	NaN
200.258	4	Aircraft2_70%_18.jpg	1	0.75	200.258	203.988	201.74	1	200.258	203.988	201.74	1
204.265	4	Aircraft1_70%_29.jpg	0	0.75	204.265	207.997	208.265	0	204.265	207.997	208.265	0
208.287	4	Aircraft2_70%_1.jpg	1	0.75	208.287	212.021	209.641	1	208.287	212.021	209.641	1
212.307	4	Aircraft1_70%_26.jpg	0	0.75	212.307	216.043	214.679	0	212.307	216.043	214.679	0
216.315	4	Aircraft2_70%_34.jpg	1	0.75	216.315	220.046	217.238	1	216.315	220.046	217.238	1
220.322	4	rest.jpg	NaN	NaN	220.322	224.052	224.322	NaN	220.322	224.052	224.322	NaN
224.286	4	rest.jpg	NaN	NaN	224.286	228.022	228.286	NaN	224.286	228.022	228.286	NaN
228.256	4	rest.jpg	NaN	NaN	228.256	231.992	232.256	NaN	228.256	231.992	232.256	NaN
232.282	4	Aircraft2_10%_17.jpg	1	0.1	232.282	236.018	234.72	1	232.282	236.018	234.72	1
236.31	4	Aircraft2_10%_11.jpg	1	0.1	236.31	240.046	237.528	1	236.31	240.046	237.528	1
240.322	4	Aircraft1_10%_20.jpg	0	0.1	240.322	244.052	241.41	0	240.322	244.052	241.41	0
244.345	4	Aircraft2_10%_47.jpg	1	0.1	244.345	248.077	246.379	1	244.345	248.077	246.379	1
248.345	4	Aircraft2_10%_45.jpg	1	0.1	248.345	252.076	249.684	1	248.345	252.076	249.684	1
252.363	4	rest.jpg	NaN	NaN	252.363	256.099	256.363	NaN	252.363	256.099	256.363	NaN
256.331	4	rest.jpg	NaN	NaN	256.331	260.061	260.331	NaN	256.331	260.061	260.331	NaN
260.295	4	rest.jpg	NaN	NaN	260.295	264.025	264.295	NaN	260.295	264.025	264.295	NaN
264.301	4	Aircraft1_90%_25.jpg	0	0.9	264.301	268.036	266.331	0	264.301	268.036	266.331	0
268.318	4	Aircraft2_90%_49.jpg	1	0.9	268.318	272.048	269.255	1	268.318	272.048	269.255	1
272.332	4	Aircraft2_90%_10.jpg	1	0.9	272.332	276.064	274.836	1	272.332	276.064	274.836	1
276.334	4	Aircraft2_90%_12.jpg	1	0.9	276.334	280.071	278.421	1	276.334	280.071	278.421	1
280.342	4	Aircraft2_90%_7.jpg	1	0.9	280.342	284.074	284.342	1	280.342	284.074	284.342	1
284.359	4	rest.jpg	NaN	NaN	284.359	288.091	284.446	NaN	284.359	288.091	284.446	NaN
288.323	4	rest.jpg	NaN	NaN	288.323	292.055	292.323	NaN	288.323	292.055	292.323	NaN
292.302	4	rest.jpg	NaN	NaN	292.302	296.033	296.302	NaN	292.302	296.033	296.302	NaN
296.313	4	Aircraft1_70%_32.jpg	0	0.75	296.313	300.049	298.773	0	296.313	300.049	298.773	0
300.334	4	Aircraft1_70%_49.jpg	0	0.75	300.334	304.067	301.358	0	300.334	304.067	301.358	0
304.336	4	Aircraft2_70%_22.jpg	1	0.75	304.336	308.068	306.105	1	304.336	308.068	306.105	1
308.358	4	Aircraft1_70%_34.jpg	0	0.75	308.358	312.091	311.287	0	308.358	312.091	311.287	0
312.38	4	Aircraft1_70%_14.jpg	0	0.75	312.38	316.117	313.675	0	312.38	316.117	313.675	0
316.39	4	rest.jpg	NaN	NaN	316.39	320.126	320.39	NaN	316.39	320.126	320.39	NaN
320.368	4	rest.jpg	NaN	NaN	320.368	324.105	324.368	NaN	320.368	324.105	324.368	NaN
324.352	4	rest.jpg	NaN	NaN	324.352	328.088	328.352	NaN	324.352	328.088	328.352	NaN
328.364	4	Aircraft1_10%_1.jpg	0	0.1	328.364	332.099	329.115	0	328.364	332.099	329.115	0
332.385	4	Aircraft1_10%_47.jpg	0	0.1	332.385	336.115	335.129	0	332.385	336.115	335.129	0
336.403	4	Aircraft1_10%_40.jpg	0	0.1	336.403	340.135	339.156	0	336.403	340.135	339.156	0
340.428	4	Aircraft1_10%_27.jpg	0	0.1	340.428	344.164	342.161	0	340.428	344.164	342.161	0
344.448	4	Aircraft2_10%_35.jpg	1	0.1	344.448	348.181	346.17	1	344.448	348.181	346.17	1
348.471	4	rest.jpg	NaN	NaN	348.471	352.204	352.471	NaN	348.471	352.204	352.471	NaN
352.453	4	rest.jpg	NaN	NaN	352.453	356.188	356.453	NaN	352.453	356.188	356.453	NaN
356.436	4	rest.jpg	NaN	NaN	356.436	360.168	360.436	NaN	356.436	360.168	360.436	NaN
360.448	4	Aircraft1_90%_32.jpg	0	0.9	360.448	364.185	363.088	0	360.448	364.185	363.088	0
364.468	4	Aircraft1_90%_49.jpg	0	0.9	364.468	368.203	365.779	0	364.468	368.203	365.779	0
368.485	4	Aircraft2_90%_22.jpg	1	0.9	368.485	372.215	372.485	1	368.485	372.215	372.485	1
372.497	4	Aircraft1_90%_34.jpg	0	0.9	372.497	376.24	374.359	0	372.497	376.24	374.359	0
376.508	4	Aircraft1_90%_14.jpg	0	0.9	376.508	380.238	378.098	0	376.508	380.238	378.098	0
380.523	4	rest.jpg	NaN	NaN	380.523	384.254	384.523	NaN	380.523	384.254	384.523	NaN
384.502	4	rest.jpg	NaN	NaN	384.502	388.237	388.502	NaN	384.502	388.237	388.502	NaN
388.471	4	rest.jpg	NaN	NaN	388.471	392.208	392.471	NaN	388.471	392.208	392.471	NaN
392.486	4	Aircraft2_70%_24.jpg	1	0.75	392.486	396.221	394.358	1	392.486	396.221	394.358	1
396.509	4	Aircraft2_70%_2.jpg	1	0.75	396.509	400.241	400.509	1	396.509	400.241	400.509	1
400.52	4	Aircraft2_70%_43.jpg	1	0.75	400.52	404.256	401.653	1	400.52	404.256	401.653	1
404.528	4	Aircraft2_70%_46.jpg	1	0.75	404.528	408.259	405.741	1	404.528	408.259	405.741	1
408.543	4	Aircraft1_70%_42.jpg	0	0.75	408.543	412.279	411.199	0	408.543	412.279	411.199	0
412.565	4	rest.jpg	NaN	NaN	412.565	416.298	416.565	NaN	412.565	416.298	416.565	NaN
416.543	4	rest.jpg	NaN	NaN	416.543	420.281	420.543	NaN	416.543	420.281	420.543	NaN
420.515	4	rest.jpg	NaN	NaN	420.515	424.245	424.515	NaN	420.515	424.245	424.515	NaN
424.52	4	Aircraft2_10%_30.jpg	1	0.1	424.52	428.254	426.678	1	424.52	428.254	426.678	1
428.525	4	Aircraft2_10%_27.jpg	1	0.1	428.525	432.26	429.704	1	428.525	432.26	429.704	1
432.533	4	Aircraft2_10%_50.jpg	1	0.1	432.533	436.264	433.634	1	432.533	436.264	433.634	1
436.555	4	Aircraft2_10%_29.jpg	1	0.1	436.555	440.288	437.622	1	436.555	440.288	437.622	1
440.578	4	Aircraft1_10%_6.jpg	0	0.1	440.578	444.309	444.578	0	440.578	444.309	444.578	0
444.598	4	rest.jpg	NaN	NaN	444.598	448.328	448.598	NaN	444.598	448.328	448.598	NaN
448.578	4	rest.jpg	NaN	NaN	448.578	452.314	452.578	NaN	448.578	452.314	452.578	NaN
452.547	4	rest.jpg	NaN	NaN	452.547	456.277	456.547	NaN	452.547	456.277	456.547	NaN
456.561	4	Aircraft2_90%_18.jpg	1	0.9	456.561	460.299	459.732	1	456.561	460.299	459.732	1
460.573	4	Aircraft1_90%_29.jpg	0	0.9	460.573	464.302	463.298	0	460.573	464.302	463.298	0
464.568	4	Aircraft2_90%_1.jpg	1	0.9	464.568	468.3	468.568	1	464.568	468.3	468.568	1
468.57	4	Aircraft1_90%_26.jpg	0	0.9	468.57	472.3	472.57	0	468.57	472.3	472.57	0
472.567	4	Aircraft2_90%_34.jpg	1	0.9	472.567	476.304	476.567	1	472.567	476.304	476.567	1
476.588	4	rest.jpg	NaN	NaN	476.588	480.318	476.701	NaN	476.588	480.318	476.701	NaN
480.552	4	rest.jpg	NaN	NaN	480.552	484.284	484.552	NaN	480.552	484.284	484.552	NaN
484.534	4	rest.jpg	NaN	NaN	484.534	488.264	488.534	NaN	484.534	488.264	488.534	NaN
488.553	4	Aircraft1_70%_17.jpg	0	0.75	488.553	492.284	491.585	0	488.553	492.284	491.585	0
492.559	4	Aircraft2_70%_42.jpg	1	0.75	492.559	496.289	494.035	1	492.559	496.289	494.035	1
496.577	4	Aircraft2_70%_44.jpg	1	0.75	496.577	500.311	498.422	1	496.577	500.311	498.422	1
500.6	4	Aircraft1_70%_10.jpg	0	0.75	500.6	504.332	503.073	0	500.6	504.332	503.073	0
504.619	4	Aircraft2_70%_25.jpg	1	0.75	504.619	508.355	505.612	1	504.619	508.355	505.612	1
508.629	4	rest.jpg	NaN	NaN	508.629	512.361	512.629	NaN	508.629	512.361	512.629	NaN
512.611	4	rest.jpg	NaN	NaN	512.611	516.341	516.611	NaN	512.611	516.341	516.611	NaN
516.576	4	rest.jpg	NaN	NaN	516.576	520.313	520.576	NaN	516.576	520.313	520.576	NaN
520.607	4	Aircraft1_10%_38.jpg	0	0.1	520.607	524.339	522.209	0	520.607	524.339	522.209	0
524.619	4	Aircraft2_10%_21.jpg	1	0.1	524.619	528.349	525.602	1	524.619	528.349	525.602	1
528.625	4	Aircraft1_10%_16.jpg	0	0.1	528.625	532.361	530.419	0	528.625	532.361	530.419	0
532.652	4	Aircraft1_10%_46.jpg	0	0.1	532.652	536.381	534.794	0	532.652	536.381	534.794	0
536.664	4	Aircraft2_10%_40.jpg	1	0.1	536.664	540.4	537.401	1	536.664	540.4	537.401	1
540.671	4	rest.jpg	NaN	NaN	540.671	544.406	544.671	NaN	540.671	544.406	544.671	NaN
544.655	4	rest.jpg	NaN	NaN	544.655	548.385	548.655	NaN	544.655	548.385	548.655	NaN
548.63	4	rest.jpg	NaN	NaN	548.63	552.367	552.63	NaN	548.63	552.367	552.63	NaN
552.649	4	Aircraft2_90%_4.jpg	1	0.9	552.649	556.385	555.331	1	552.649	556.385	555.331	1
556.655	4	Aircraft1_90%_43.jpg	0	0.9	556.655	560.39	557.845	0	556.655	560.39	557.845	0
560.672	4	Aircraft1_90%_9.jpg	0	0.9	560.672	564.404	562.837	0	560.672	564.404	562.837	0
564.684	4	Aircraft1_90%_11.jpg	0	0.9	564.684	568.421	567.998	0	564.684	568.421	567.998	0
568.701	4	Aircraft1_90%_50.jpg	0	0.9	568.701	572.431	572.701	0	568.701	572.431	572.701	0
572.724	4	rest.jpg	NaN	NaN	572.724	576.461	572.764	NaN	572.724	576.461	572.764	NaN
576.707	4	rest.jpg	NaN	NaN	576.707	580.439	580.707	NaN	576.707	580.439	580.707	NaN
580.677	4	rest.jpg	NaN	NaN	580.677	584.41	584.677	NaN	580.677	584.41	584.677	NaN
584.696	4	Aircraft1_70%_12.jpg	0	0.75	584.696	588.429	587.094	0	584.696	588.429	587.094	0
588.715	4	Aircraft2_70%_32.jpg	1	0.75	588.715	592.45	589.779	1	588.715	592.45	589.779	1
592.719	4	Aircraft2_70%_48.jpg	1	0.75	592.719	596.45	594.414	1	592.719	596.45	594.414	1
596.726	4	Aircraft1_70%_19.jpg	0	0.75	596.726	600.462	598.91	0	596.726	600.462	598.91	0
600.749	4	Aircraft1_70%_33.jpg	0	0.75	600.749	604.484	603.814	0	600.749	604.484	603.814	0
604.757	4	rest.jpg	NaN	NaN	604.757	608.488	608.757	NaN	604.757	608.488	608.757	NaN
608.72	4	rest.jpg	NaN	NaN	608.72	612.455	612.72	NaN	608.72	612.455	612.72	NaN
612.704	4	rest.jpg	NaN	NaN	612.704	616.434	616.704	NaN	612.704	616.434	616.704	NaN
616.725	4	Aircraft2_10%_23.jpg	1	0.1	616.725	620.461	620.725	1	616.725	620.461	620.725	1
620.735	4	Aircraft1_10%_28.jpg	0	0.1	620.735	624.47	621.004	0	620.735	624.47	621.004	0
624.761	4	Aircraft2_10%_13.jpg	1	0.1	624.761	628.493	625.481	1	624.761	628.493	625.481	1
628.779	4	Aircraft1_10%_45.jpg	0	0.1	628.779	632.516	629.576	0	628.779	632.516	629.576	0
632.808	4	Aircraft1_10%_37.jpg	0	0.1	632.808	636.544	634.177	0	632.808	636.544	634.177	0
636.83	4	rest.jpg	NaN	NaN	636.83	640.567	640.83	NaN	636.83	640.567	640.83	NaN
640.815	4	rest.jpg	NaN	NaN	640.815	644.547	644.815	NaN	640.815	644.547	644.815	NaN
644.796	4	rest.jpg	NaN	NaN	644.796	648.526	648.796	NaN	644.796	648.526	648.796	NaN
648.791	4	Aircraft2_90%_33.jpg	1	0.9	648.791	652.521	649.715	1	648.791	652.521	649.715	1
652.804	4	Aircraft2_90%_38.jpg	1	0.9	652.804	656.534	653.996	1	652.804	656.534	653.996	1
656.812	4	Aircraft1_90%_30.jpg	0	0.9	656.812	660.545	659.81	0	656.812	660.545	659.81	0
660.816	4	Aircraft1_90%_41.jpg	0	0.9	660.816	664.548	662.495	0	660.816	664.548	662.495	0
664.83	4	Aircraft1_90%_18.jpg	0	0.9	664.83	668.562	666.106	0	664.83	668.562	666.106	0
668.836	4	rest.jpg	NaN	NaN	668.836	672.567	672.836	NaN	668.836	672.567	672.836	NaN
672.816	4	rest.jpg	NaN	NaN	672.816	676.551	676.816	NaN	672.816	676.551	676.816	NaN
676.8	4	rest.jpg	NaN	NaN	676.8	680.531	680.8	NaN	676.8	680.531	680.8	NaN
680.802	4	Aircraft2_70%_9.jpg	1	0.75	680.802	684.535	683.876	1	680.802	684.535	683.876	1
684.818	4	Aircraft2_70%_6.jpg	1	0.75	684.818	688.551	685.523	1	684.818	688.551	685.523	1
688.844	4	Aircraft1_70%_23.jpg	0	0.75	688.844	692.581	691.175	0	688.844	692.581	691.175	0
692.871	4	Aircraft1_70%_21.jpg	0	0.75	692.871	696.607	696.871	0	692.871	696.607	696.871	0
696.892	4	Aircraft2_70%_36.jpg	1	0.75	696.892	700.628	698.815	1	696.892	700.628	698.815	1
700.904	4	rest.jpg	NaN	NaN	700.904	704.634	704.904	NaN	700.904	704.634	704.904	NaN
704.884	4	rest.jpg	NaN	NaN	704.884	708.621	708.884	NaN	704.884	708.621	708.884	NaN
708.855	4	rest.jpg	NaN	NaN	708.855	712.591	712.855	NaN	708.855	712.591	712.855	NaN
712.879	4	Aircraft2_10%_41.jpg	1	0.1	712.879	716.609	713.835	1	712.879	716.609	713.835	1
716.888	4	Aircraft1_10%_22.jpg	0	0.1	716.888	720.618	719.401	0	716.888	720.618	719.401	0
720.902	4	Aircraft1_10%_44.jpg	0	0.1	720.902	724.637	722.07	0	720.902	724.637	722.07	0
724.928	4	Aircraft1_10%_1.jpg	0	0.1	724.928	728.663	725.74	0	724.928	728.663	725.74	0
728.948	4	Aircraft2_10%_37.jpg	1	0.1	728.948	732.686	732.948	1	728.948	732.686	732.948	1
732.955	4	rest.jpg	NaN	NaN	732.955	736.688	736.955	NaN	732.955	736.688	736.955	NaN
736.922	4	rest.jpg	NaN	NaN	736.922	740.652	740.922	NaN	736.922	740.652	740.922	NaN
740.886	4	rest.jpg	NaN	NaN	740.886	744.623	744.886	NaN	740.886	744.623	744.886	NaN
744.906	4	Aircraft2_90%_31.jpg	1	0.9	744.906	748.641	747.878	1	744.906	748.641	747.878	1
748.923	4	Aircraft1_90%_4.jpg	0	0.9	748.923	752.66	750.557	0	748.923	752.66	750.557	0
752.94	4	Aircraft2_90%_20.jpg	1	0.9	752.94	756.675	756.94	1	752.94	756.675	756.94	1
756.941	4	Aircraft1_90%_7.jpg	0	0.9	756.941	760.671	759.045	0	756.941	760.671	759.045	0
760.941	4	Aircraft1_90%_8.jpg	0	0.9	760.941	764.673	763.934	0	760.941	764.673	763.934	0
764.96	4	rest.jpg	NaN	NaN	764.96	768.696	768.96	NaN	764.96	768.696	768.96	NaN
768.93	4	rest.jpg	NaN	NaN	768.93	772.661	772.93	NaN	768.93	772.661	772.93	NaN
772.905	4	rest.jpg	NaN	NaN	772.905	776.641	776.905	NaN	772.905	776.641	776.905	NaN
776.915	4	Aircraft2_70%_14.jpg	1	0.75	776.915	780.645	778.646	1	776.915	780.645	778.646	1
780.922	4	Aircraft2_70%_5.jpg	1	0.75	780.922	784.653	783.103	1	780.922	784.653	783.103	1
784.928	4	Aircraft2_70%_15.jpg	1	0.75	784.928	788.665	785.95	1	784.928	788.665	785.95	1
788.95	4	Aircraft2_70%_19.jpg	1	0.75	788.95	792.68	792.95	1	788.95	792.68	792.95	1
792.971	4	Aircraft1_70%_31.jpg	0	0.75	792.971	796.703	795.601	0	792.971	796.703	795.601	0
796.989	4	rest.jpg	NaN	NaN	796.989	800.725	800.989	NaN	796.989	800.725	800.989	NaN
800.975	4	rest.jpg	NaN	NaN	800.975	804.71	804.975	NaN	800.975	804.71	804.975	NaN
804.944	4	rest.jpg	NaN	NaN	804.944	808.674	808.944	NaN	804.944	808.674	808.944	NaN
808.967	4	Aircraft2_10%_9.jpg	1	0.1	808.967	812.703	810.208	1	808.967	812.703	810.208	1
812.976	4	Aircraft2_10%_6.jpg	1	0.1	812.976	816.708	815.304	1	812.976	816.708	815.304	1
816.998	4	Aircraft1_10%_23.jpg	0	0.1	816.998	820.727	820.998	0	816.998	820.727	820.998	0
821.004	4	Aircraft1_10%_21.jpg	0	0.1	821.004	824.74	823.21	0	821.004	824.74	823.21	0
825.009	4	Aircraft2_10%_36.jpg	1	0.1	825.009	828.745	825.853	1	825.009	828.745	825.853	1
829.03	4	rest.jpg	NaN	NaN	829.03	832.769	833.03	NaN	829.03	832.769	833.03	NaN
833.003	4	rest.jpg	NaN	NaN	833.003	836.733	837.003	NaN	833.003	836.733	837.003	NaN
836.967	4	rest.jpg	NaN	NaN	836.967	840.697	840.967	NaN	836.967	840.697	840.967	NaN
840.977	4	Aircraft2_90%_24.jpg	1	0.9	840.977	844.712	843.856	1	840.977	844.712	843.856	1
844.982	4	Aircraft2_90%_2.jpg	1	0.9	844.982	848.712	846.693	1	844.982	848.712	846.693	1
848.99	4	Aircraft2_90%_43.jpg	1	0.9	848.99	852.72	852.99	1	848.99	852.72	852.99	1
852.99	4	Aircraft2_90%_46.jpg	1	0.9	852.99	856.725	855.061	1	852.99	856.725	855.061	1
857.01	4	Aircraft1_90%_42.jpg	0	0.9	857.01	860.745	860.133	0	857.01	860.745	860.133	0
861.03	4	rest.jpg	NaN	NaN	861.03	864.76	865.03	NaN	861.03	864.76	865.03	NaN
865.004	4	rest.jpg	NaN	NaN	865.004	868.734	869.004	NaN	865.004	868.734	869.004	NaN
868.983	4	rest.jpg	NaN	NaN	868.983	872.715	872.983	NaN	868.983	872.715	872.983	NaN
873.004	4	Aircraft1_70%_3.jpg	0	0.75	873.004	876.741	874.94	0	873.004	876.741	874.94	0
877.017	4	Aircraft2_70%_28.jpg	1	0.75	877.017	880.747	880.402	1	877.017	880.747	880.402	1
881.035	4	Aircraft1_70%_24.jpg	0	0.75	881.035	884.765	885.035	0	881.035	884.765	885.035	0
885.043	4	Aircraft2_70%_39.jpg	1	0.75	885.043	888.776	887.601	1	885.043	888.776	887.601	1
889.066	4	Aircraft2_70%_8.jpg	1	0.75	889.066	892.795	893.066	1	889.066	892.795	893.066	1
893.066	4	rest.jpg	NaN	NaN	893.066	896.804	897.066	NaN	893.066	896.804	897.066	NaN
897.036	4	rest.jpg	NaN	NaN	897.036	900.773	901.036	NaN	897.036	900.773	901.036	NaN
901.02	4	rest.jpg	NaN	NaN	901.02	904.757	905.02	NaN	901.02	904.757	905.02	NaN
905.045	4	Aircraft1_10%_12.jpg	0	0.1	905.045	908.782	906.363	0	905.045	908.782	906.363	0
909.06	4	Aircraft2_10%_32.jpg	1	0.1	909.06	912.797	909.813	1	909.06	912.797	909.813	1
913.087	4	Aircraft2_10%_48.jpg	1	0.1	913.087	916.822	917.087	1	913.087	916.822	917.087	1
917.11	4	Aircraft1_10%_19.jpg	0	0.1	917.11	920.86	917.966	0	917.11	920.86	917.966	0
921.145	4	Aircraft1_10%_33.jpg	0	0.1	921.145	924.876	922.195	0	921.145	924.876	922.195	0
925.158	4	rest.jpg	NaN	NaN	925.158	928.89	929.158	NaN	925.158	928.89	929.158	NaN
929.136	4	rest.jpg	NaN	NaN	929.136	932.866	933.136	NaN	929.136	932.866	933.136	NaN
933.114	4	rest.jpg	NaN	NaN	933.114	936.844	937.114	NaN	933.114	936.844	937.114	NaN
937.115	4	Aircraft1_90%_17.jpg	0	0.9	937.115	940.86	941.115	0	937.115	940.86	941.115	0
941.133	4	Aircraft2_90%_42.jpg	1	0.9	941.133	944.869	943.331	1	941.133	944.869	943.331	1
945.152	4	Aircraft2_90%_44.jpg	1	0.9	945.152	948.889	948.239	1	945.152	948.889	948.239	1
949.159	4	Aircraft1_90%_10.jpg	0	0.9	949.159	952.891	953.159	0	949.159	952.891	953.159	0
953.171	4	Aircraft2_90%_25.jpg	1	0.9	953.171	956.909	957.171	1	953.171	956.909	957.171	1
957.208	4	rest.jpg	NaN	NaN	957.208	960.938	957.278	NaN	957.208	960.938	957.278	NaN
961.182	4	rest.jpg	NaN	NaN	961.182	964.918	965.182	NaN	961.182	964.918	965.182	NaN
965.15	4	rest.jpg	NaN	NaN	965.15	968.881	969.15	NaN	965.15	968.881	969.15	NaN
969.148	4	Aircraft1_70%_25.jpg	0	0.75	969.148	972.878	973.148	0	969.148	972.878	973.148	0
973.15	4	Aircraft2_70%_49.jpg	1	0.75	973.15	976.88	973.443	1	973.15	976.88	973.443	1
977.149	4	Aircraft2_70%_10.jpg	1	0.75	977.149	980.896	979.275	1	977.149	980.896	979.275	1
981.172	4	Aircraft2_70%_12.jpg	1	0.75	981.172	984.907	985.172	1	981.172	984.907	985.172	1
985.198	4	Aircraft2_70%_7.jpg	1	0.75	985.198	988.935	987.21	1	985.198	988.935	987.21	1
989.211	4	rest.jpg	NaN	NaN	989.211	992.947	993.211	NaN	989.211	992.947	993.211	NaN
993.191	4	rest.jpg	NaN	NaN	993.191	996.927	997.191	NaN	993.191	996.927	997.191	NaN
997.189	4	rest.jpg	NaN	NaN	997.189	1000.923	1001.189	NaN	997.189	1000.923	1001.189	NaN
