onset	duration	stim_file	stim_lable	levelOfOcclusion	stim_started	stim_stopped	key_time	key_fix
39.989	4	Aircraft1_10%_17.jpg	0	0.1	39.989	43.725	42.663	0
44.018	4	Aircraft2_10%_42.jpg	1	0.1	44.018	47.751	44.9	1
48.035	4	Aircraft2_10%_44.jpg	1	0.1	48.035	51.767	48.879	1
52.067	4	Aircraft1_10%_10.jpg	0	0.1	52.067	55.801	52.831	0
56.092	4	Aircraft2_10%_25.jpg	1	0.1	56.092	59.821	57.007	1
60.094	4	rest.jpg	NaN	NaN	60.094	63.826	64.094	NaN
64.064	4	rest.jpg	NaN	NaN	64.064	67.793	68.064	NaN
68.04	4	rest.jpg	NaN	NaN	68.04	71.776	72.04	NaN
72.042	4	Aircraft1_90%_12.jpg	0	0.9	72.042	75.776	74.398	0
76.055	4	Aircraft2_90%_32.jpg	1	0.9	76.055	79.788	77.174	1
80.053	4	Aircraft2_90%_48.jpg	1	0.9	80.053	83.789	84.053	1
84.069	4	Aircraft1_90%_19.jpg	0	0.9	84.069	87.799	84.071	0
88.087	4	Aircraft1_90%_33.jpg	0	0.9	88.087	91.824	90.642	0
92.112	4	rest.jpg	NaN	NaN	92.112	95.848	96.112	NaN
96.083	4	rest.jpg	NaN	NaN	96.083	99.82	100.083	NaN
100.072	4	rest.jpg	NaN	NaN	100.072	103.808	104.072	NaN
104.078	4	Aircraft2_70%_33.jpg	1	0.75	104.078	107.807	105.189	1
108.103	4	Aircraft2_70%_38.jpg	1	0.75	108.103	111.832	109.31	1
112.111	4	Aircraft1_70%_30.jpg	0	0.75	112.111	115.84	114.529	0
116.171	4	Aircraft1_70%_41.jpg	0	0.75	116.171	119.905	120.171	0
120.179	4	Aircraft1_70%_18.jpg	0	0.75	120.179	123.908	120.38	0
124.202	4	rest.jpg	NaN	NaN	124.202	127.934	128.202	NaN
128.185	4	rest.jpg	NaN	NaN	128.185	131.921	132.185	NaN
132.174	4	rest.jpg	NaN	NaN	132.174	135.903	136.174	NaN
136.18	4	Aircraft2_10%_24.jpg	1	0.1	136.18	139.917	138.157	1
140.199	4	Aircraft2_10%_2.jpg	1	0.1	140.199	143.93	141.501	1
144.223	4	Aircraft2_10%_43.jpg	1	0.1	144.223	147.952	145.059	1
148.244	4	Aircraft2_10%_46.jpg	1	0.1	148.244	151.973	149.124	1
152.255	4	Aircraft1_10%_42.jpg	0	0.1	152.255	155.984	152.977	0
156.274	4	rest.jpg	NaN	NaN	156.274	160.004	160.274	NaN
160.254	4	rest.jpg	NaN	NaN	160.254	163.983	164.254	NaN
164.22	4	rest.jpg	NaN	NaN	164.22	167.952	168.22	NaN
168.221	4	Aircraft2_90%_9.jpg	1	0.9	168.221	171.955	170.417	1
172.225	4	Aircraft2_90%_6.jpg	1	0.9	172.225	175.954	174.559	1
176.223	4	Aircraft1_90%_23.jpg	0	0.9	176.223	179.958	177.912	0
180.226	4	Aircraft1_90%_21.jpg	0	0.9	180.226	183.954	183.105	0
184.22	4	Aircraft2_90%_36.jpg	1	0.9	184.22	187.956	185.997	1
188.246	4	rest.jpg	NaN	NaN	188.246	191.975	192.246	NaN
192.224	4	rest.jpg	NaN	NaN	192.224	195.959	196.224	NaN
196.216	4	rest.jpg	NaN	NaN	196.216	199.95	200.216	NaN
200.225	4	Aircraft2_70%_31.jpg	1	0.75	200.225	203.96	201.887	1
204.249	4	Aircraft1_70%_4.jpg	0	0.75	204.249	207.978	205.197	0
208.252	4	Aircraft2_70%_20.jpg	1	0.75	208.252	211.981	210.195	1
212.275	4	Aircraft1_70%_7.jpg	0	0.75	212.275	216.005	215.114	0
216.28	4	Aircraft1_70%_8.jpg	0	0.75	216.28	220.009	218.247	0
220.278	4	rest.jpg	NaN	NaN	220.278	224.01	224.278	NaN
224.243	4	rest.jpg	NaN	NaN	224.243	227.972	228.243	NaN
228.224	4	rest.jpg	NaN	NaN	228.224	231.958	232.224	NaN
232.235	4	Aircraft2_10%_31.jpg	1	0.1	232.235	235.967	233.907	1
236.26	4	Aircraft1_10%_4.jpg	0	0.1	236.26	239.994	237.356	0
240.268	4	Aircraft2_10%_20.jpg	1	0.1	240.268	244.004	242.792	1
244.284	4	Aircraft1_10%_7.jpg	0	0.1	244.284	248.013	245.055	0
248.308	4	Aircraft1_10%_8.jpg	0	0.1	248.308	252.042	249.115	0
252.331	4	rest.jpg	NaN	NaN	252.331	256.065	256.331	NaN
256.298	4	rest.jpg	NaN	NaN	256.298	260.032	260.298	NaN
260.275	4	rest.jpg	NaN	NaN	260.275	264.004	264.275	NaN
264.289	4	Aircraft2_90%_41.jpg	1	0.9	264.289	268.024	268.289	1
268.31	4	Aircraft1_90%_22.jpg	0	0.9	268.31	272.044	270.847	0
272.314	4	Aircraft1_90%_44.jpg	0	0.9	272.314	276.044	275.73	0
276.312	4	Aircraft1_90%_1.jpg	0	0.9	276.312	280.047	279.215	0
280.314	4	Aircraft2_90%_37.jpg	1	0.9	280.314	284.044	281.384	1
284.314	4	rest.jpg	NaN	NaN	284.314	288.049	288.314	NaN
288.283	4	rest.jpg	NaN	NaN	288.283	292.016	292.283	NaN
292.271	4	rest.jpg	NaN	NaN	292.271	296.005	296.271	NaN
296.276	4	Aircraft2_70%_41.jpg	1	0.75	296.276	300.005	298.771	1
300.279	4	Aircraft1_70%_22.jpg	0	0.75	300.279	304.008	301.542	0
304.296	4	Aircraft1_70%_44.jpg	0	0.75	304.296	308.031	307.425	0
308.318	4	Aircraft1_70%_1.jpg	0	0.75	308.318	312.053	309.222	0
312.336	4	Aircraft2_70%_37.jpg	1	0.75	312.336	316.065	314.748	1
316.335	4	rest.jpg	NaN	NaN	316.335	320.066	320.335	NaN
320.3	4	rest.jpg	NaN	NaN	320.3	324.035	324.3	NaN
324.269	4	rest.jpg	NaN	NaN	324.269	327.998	328.269	NaN
328.271	4	Aircraft2_10%_33.jpg	1	0.1	328.271	332.008	329.762	1
332.302	4	Aircraft2_10%_38.jpg	1	0.1	332.302	336.033	333.049	1
336.308	4	Aircraft1_10%_30.jpg	0	0.1	336.308	340.037	338.204	0
340.328	4	Aircraft1_10%_41.jpg	0	0.1	340.328	344.06	341.035	0
344.331	4	Aircraft1_10%_18.jpg	0	0.1	344.331	348.062	345.807	0
348.35	4	rest.jpg	NaN	NaN	348.35	352.079	352.35	NaN
352.316	4	rest.jpg	NaN	NaN	352.316	356.048	356.316	NaN
356.3	4	rest.jpg	NaN	NaN	356.3	360.031	360.3	NaN
360.298	4	Aircraft2_90%_23.jpg	1	0.9	360.298	364.026	363.149	1
364.309	4	Aircraft1_90%_28.jpg	0	0.9	364.309	368.039	365.175	0
368.306	4	Aircraft2_90%_13.jpg	1	0.9	368.306	372.041	371.754	1
372.306	4	Aircraft1_90%_45.jpg	0	0.9	372.306	376.041	374.489	0
376.32	4	Aircraft1_90%_37.jpg	0	0.9	376.32	380.05	380.32	0
380.32	4	rest.jpg	NaN	NaN	380.32	384.051	384.32	NaN
384.285	4	rest.jpg	NaN	NaN	384.285	388.024	388.285	NaN
388.273	4	rest.jpg	NaN	NaN	388.273	392.004	392.273	NaN
392.277	4	Aircraft1_70%_2.jpg	0	0.75	392.277	396.012	394.957	0
396.285	4	Aircraft1_70%_39.jpg	0	0.75	396.285	400.017	399.557	0
400.29	4	Aircraft2_70%_26.jpg	1	0.75	400.29	404.024	402.125	1
404.299	4	Aircraft1_70%_15.jpg	0	0.75	404.299	408.03	406.857	0
408.319	4	Aircraft2_70%_16.jpg	1	0.75	408.319	412.05	409.542	1
412.319	4	rest.jpg	NaN	NaN	412.319	416.048	416.319	NaN
416.298	4	rest.jpg	NaN	NaN	416.298	420.027	420.298	NaN
420.277	4	rest.jpg	NaN	NaN	420.277	424.009	424.277	NaN
424.295	4	Aircraft2_10%_4.jpg	1	0.1	424.295	428.025	425.842	1
428.3	4	Aircraft1_10%_43.jpg	0	0.1	428.3	432.034	429.431	0
432.308	4	Aircraft1_10%_9.jpg	0	0.1	432.308	436.042	433.712	0
436.316	4	Aircraft1_10%_11.jpg	0	0.1	436.316	440.045	437.158	0
440.331	4	Aircraft1_10%_50.jpg	0	0.1	440.331	444.06	442.039	0
444.35	4	rest.jpg	NaN	NaN	444.35	448.08	448.35	NaN
448.329	4	rest.jpg	NaN	NaN	448.329	452.061	452.329	NaN
452.295	4	rest.jpg	NaN	NaN	452.295	456.029	456.295	NaN
456.296	4	Aircraft1_90%_38.jpg	0	0.9	456.296	460.032	458.047	0
460.298	4	Aircraft2_90%_21.jpg	1	0.9	460.298	464.027	464.298	1
464.308	4	Aircraft1_90%_16.jpg	0	0.9	464.308	468.037	468.308	0
468.322	4	Aircraft1_90%_46.jpg	0	0.9	468.322	472.057	469.53	0
472.338	4	Aircraft2_90%_40.jpg	1	0.9	472.338	476.067	474.177	1
476.335	4	rest.jpg	NaN	NaN	476.335	480.064	480.335	NaN
480.312	4	rest.jpg	NaN	NaN	480.312	484.044	484.312	NaN
484.294	4	rest.jpg	NaN	NaN	484.294	488.029	488.294	NaN
488.298	4	Aircraft1_70%_36.jpg	0	0.75	488.298	492.034	489.91	0
492.307	4	Aircraft1_70%_35.jpg	0	0.75	492.307	496.041	493.949	0
496.331	4	Aircraft2_70%_3.jpg	1	0.75	496.331	500.06	497.57	1
500.348	4	Aircraft1_70%_5.jpg	0	0.75	500.348	504.08	504.348	0
504.369	4	Aircraft1_70%_48.jpg	0	0.75	504.369	508.103	506.21	0
508.39	4	rest.jpg	NaN	NaN	508.39	512.125	512.39	NaN
512.357	4	rest.jpg	NaN	NaN	512.357	516.086	516.357	NaN
516.336	4	rest.jpg	NaN	NaN	516.336	520.066	520.336	NaN
520.348	4	Aircraft2_10%_18.jpg	1	0.1	520.348	524.083	521.343	1
524.368	4	Aircraft1_10%_29.jpg	0	0.1	524.368	528.097	528.368	0
528.366	4	Aircraft2_10%_1.jpg	1	0.1	528.366	532.1	529.311	1
532.393	4	Aircraft1_10%_26.jpg	0	0.1	532.393	536.129	533.254	0
536.404	4	Aircraft2_10%_34.jpg	1	0.1	536.404	540.139	537.246	1
540.421	4	rest.jpg	NaN	NaN	540.421	544.15	544.421	NaN
544.382	4	rest.jpg	NaN	NaN	544.382	548.111	548.382	NaN
548.356	4	rest.jpg	NaN	NaN	548.356	552.087	552.356	NaN
552.369	4	Aircraft2_90%_30.jpg	1	0.9	552.369	556.103	554.625	1
556.39	4	Aircraft2_90%_27.jpg	1	0.9	556.39	560.121	557.663	1
560.405	4	Aircraft2_90%_50.jpg	1	0.9	560.405	564.136	562.173	1
564.417	4	Aircraft2_90%_29.jpg	1	0.9	564.417	568.146	565.453	1
568.428	4	Aircraft1_90%_6.jpg	0	0.9	568.428	572.159	569.904	0
572.429	4	rest.jpg	NaN	NaN	572.429	576.157	576.429	NaN
576.403	4	rest.jpg	NaN	NaN	576.403	580.134	580.403	NaN
580.367	4	rest.jpg	NaN	NaN	580.367	584.101	584.367	NaN
584.382	4	Aircraft2_70%_17.jpg	1	0.75	584.382	588.116	586.043	1
588.401	4	Aircraft2_70%_11.jpg	1	0.75	588.401	592.136	590.776	1
592.421	4	Aircraft1_70%_20.jpg	0	0.75	592.421	596.15	596.421	0
596.43	4	Aircraft2_70%_47.jpg	1	0.75	596.43	600.161	598.748	1
600.434	4	Aircraft2_70%_45.jpg	1	0.75	600.434	604.171	603.09	1
604.459	4	rest.jpg	NaN	NaN	604.459	608.193	608.459	NaN
608.442	4	rest.jpg	NaN	NaN	608.442	612.17	612.442	NaN
612.403	4	rest.jpg	NaN	NaN	612.403	616.137	616.403	NaN
616.41	4	Aircraft1_10%_32.jpg	0	0.1	616.41	620.145	619.775	0
620.433	4	Aircraft1_10%_49.jpg	0	0.1	620.433	624.165	621.128	0
624.438	4	Aircraft2_10%_22.jpg	1	0.1	624.438	628.172	625.365	1
628.459	4	Aircraft1_10%_34.jpg	0	0.1	628.459	632.19	629.172	0
632.482	4	Aircraft1_10%_14.jpg	0	0.1	632.482	636.211	633.171	0
636.481	4	rest.jpg	NaN	NaN	636.481	640.217	640.481	NaN
640.467	4	rest.jpg	NaN	NaN	640.467	644.196	644.467	NaN
644.443	4	rest.jpg	NaN	NaN	644.443	648.171	648.443	NaN
648.436	4	Aircraft1_90%_1.jpg	0	0.9	648.436	652.17	650.421	0
652.453	4	Aircraft1_90%_47.jpg	0	0.9	652.453	656.182	655.047	0
656.469	4	Aircraft1_90%_40.jpg	0	0.9	656.469	660.203	660.469	0
660.47	4	Aircraft1_90%_27.jpg	0	0.9	660.47	664.204	663.313	0
664.486	4	Aircraft2_90%_35.jpg	1	0.9	664.486	668.215	667.735	1
668.502	4	rest.jpg	NaN	NaN	668.502	672.233	672.502	NaN
672.484	4	rest.jpg	NaN	NaN	672.484	676.219	676.484	NaN
676.453	4	rest.jpg	NaN	NaN	676.453	680.187	680.453	NaN
680.46	4	Aircraft2_70%_23.jpg	1	0.75	680.46	684.193	684.46	1
684.478	4	Aircraft1_70%_28.jpg	0	0.75	684.478	688.212	685.721	0
688.483	4	Aircraft2_70%_13.jpg	1	0.75	688.483	692.218	690.775	1
692.489	4	Aircraft1_70%_45.jpg	0	0.75	692.489	696.22	695.043	0
696.493	4	Aircraft1_70%_37.jpg	0	0.75	696.493	700.222	699.785	0
700.492	4	rest.jpg	NaN	NaN	700.492	704.223	704.492	NaN
704.457	4	rest.jpg	NaN	NaN	704.457	708.188	708.457	NaN
708.422	4	rest.jpg	NaN	NaN	708.422	712.157	712.422	NaN
712.432	4	Aircraft1_10%_25.jpg	0	0.1	712.432	716.161	713.162	0
716.439	4	Aircraft2_10%_49.jpg	1	0.1	716.439	720.174	717.535	1
720.449	4	Aircraft2_10%_10.jpg	1	0.1	720.449	724.183	721.718	1
724.47	4	Aircraft2_10%_12.jpg	1	0.1	724.47	728.199	725.887	1
728.469	4	Aircraft2_10%_7.jpg	1	0.1	728.469	732.199	730.123	1
732.49	4	rest.jpg	NaN	NaN	732.49	736.219	736.49	NaN
736.468	4	rest.jpg	NaN	NaN	736.468	740.199	740.468	NaN
740.444	4	rest.jpg	NaN	NaN	740.444	744.181	744.444	NaN
744.448	4	Aircraft2_90%_17.jpg	1	0.9	744.448	748.182	748.07	1
748.461	4	Aircraft2_90%_11.jpg	1	0.9	748.461	752.19	750.203	1
752.472	4	Aircraft1_90%_20.jpg	0	0.9	752.472	756.201	754.077	0
756.466	4	Aircraft2_90%_47.jpg	1	0.9	756.466	760.2	759.997	1
760.48	4	Aircraft2_90%_45.jpg	1	0.9	760.48	764.209	763.049	1
764.498	4	rest.jpg	NaN	NaN	764.498	768.232	768.498	NaN
768.466	4	rest.jpg	NaN	NaN	768.466	772.198	772.466	NaN
772.447	4	rest.jpg	NaN	NaN	772.447	776.182	776.447	NaN
776.451	4	Aircraft1_70%_38.jpg	0	0.75	776.451	780.186	778.133	0
780.457	4	Aircraft2_70%_21.jpg	1	0.75	780.457	784.194	782.318	1
784.48	4	Aircraft1_70%_16.jpg	0	0.75	784.48	788.209	786.452	0
788.501	4	Aircraft1_70%_46.jpg	0	0.75	788.501	792.235	791.516	0
792.522	4	Aircraft2_70%_40.jpg	1	0.75	792.522	796.257	794.217	1
796.545	4	rest.jpg	NaN	NaN	796.545	800.277	800.545	NaN
800.526	4	rest.jpg	NaN	NaN	800.526	804.26	804.526	NaN
804.51	4	rest.jpg	NaN	NaN	804.51	808.246	808.51	NaN
808.521	4	Aircraft1_10%_3.jpg	0	0.1	808.521	812.253	811.261	0
812.539	4	Aircraft2_10%_28.jpg	1	0.1	812.539	816.268	813.294	1
816.559	4	Aircraft1_10%_24.jpg	0	0.1	816.559	820.29	817.295	0
820.581	4	Aircraft2_10%_39.jpg	1	0.1	820.581	824.312	823.422	1
824.582	4	Aircraft2_10%_8.jpg	1	0.1	824.582	828.312	825.458	1
828.582	4	rest.jpg	NaN	NaN	828.582	832.311	832.582	NaN
832.554	4	rest.jpg	NaN	NaN	832.554	836.288	836.554	NaN
836.533	4	rest.jpg	NaN	NaN	836.533	840.264	840.533	NaN
840.551	4	Aircraft1_90%_36.jpg	0	0.9	840.551	844.282	843.99	0
844.548	4	Aircraft1_90%_35.jpg	0	0.9	844.548	848.277	848.548	0
848.56	4	Aircraft2_90%_3.jpg	1	0.9	848.56	852.291	849.924	1
852.558	4	Aircraft1_90%_5.jpg	0	0.9	852.558	856.289	855.633	0
856.556	4	Aircraft1_90%_48.jpg	0	0.9	856.556	860.288	858.546	0
860.572	4	rest.jpg	NaN	NaN	860.572	864.307	864.572	NaN
864.549	4	rest.jpg	NaN	NaN	864.549	868.28	868.549	NaN
868.53	4	rest.jpg	NaN	NaN	868.53	872.259	872.53	NaN
872.547	4	Aircraft2_70%_30.jpg	1	0.75	872.547	876.282	874.494	1
876.555	4	Aircraft2_70%_27.jpg	1	0.75	876.555	880.284	880.555	1
880.57	4	Aircraft2_70%_50.jpg	1	0.75	880.57	884.304	882.953	1
884.591	4	Aircraft2_70%_29.jpg	1	0.75	884.591	888.325	885.927	1
888.614	4	Aircraft1_70%_6.jpg	0	0.75	888.614	892.343	892.614	0
892.632	4	rest.jpg	NaN	NaN	892.632	896.361	896.632	NaN
896.611	4	rest.jpg	NaN	NaN	896.611	900.341	900.611	NaN
900.594	4	rest.jpg	NaN	NaN	900.594	904.324	904.594	NaN
904.598	4	Aircraft2_10%_14.jpg	1	0.1	904.598	908.33	906.848	1
908.617	4	Aircraft2_10%_5.jpg	1	0.1	908.617	912.351	909.215	1
912.645	4	Aircraft2_10%_15.jpg	1	0.1	912.645	916.381	914.3	1
916.665	4	Aircraft2_10%_19.jpg	1	0.1	916.665	920.396	917.373	1
920.686	4	Aircraft1_10%_31.jpg	0	0.1	920.686	924.417	922.017	0
924.705	4	rest.jpg	NaN	NaN	924.705	928.437	928.705	NaN
928.685	4	rest.jpg	NaN	NaN	928.685	932.419	932.685	NaN
932.653	4	rest.jpg	NaN	NaN	932.653	936.388	936.653	NaN
936.653	4	Aircraft1_90%_2.jpg	0	0.9	936.653	940.382	940.653	0
940.662	4	Aircraft1_90%_39.jpg	0	0.9	940.662	944.393	942.026	0
944.661	4	Aircraft2_90%_26.jpg	1	0.9	944.661	948.395	947.403	1
948.675	4	Aircraft1_90%_15.jpg	0	0.9	948.675	952.406	949.853	0
952.687	4	Aircraft2_90%_16.jpg	1	0.9	952.687	956.418	954.691	1
956.688	4	rest.jpg	NaN	NaN	956.688	960.422	960.688	NaN
960.669	4	rest.jpg	NaN	NaN	960.669	964.404	964.669	NaN
964.653	4	rest.jpg	NaN	NaN	964.653	968.387	968.653	NaN
968.66	4	Aircraft1_70%_1.jpg	0	0.75	968.66	972.389	970.862	0
972.676	4	Aircraft1_70%_47.jpg	0	0.75	972.676	976.406	976.676	0
976.691	4	Aircraft1_70%_40.jpg	0	0.75	976.691	980.422	978.219	0
980.693	4	Aircraft1_70%_27.jpg	0	0.75	980.693	984.422	984.693	0
984.706	4	Aircraft2_70%_35.jpg	1	0.75	984.706	988.438	986.362	1
988.723	4	rest.jpg	NaN	NaN	988.723	992.452	992.723	NaN
992.701	4	rest.jpg	NaN	NaN	992.701	996.433	996.701	NaN
996.685	4	rest.jpg	NaN	NaN	996.685	1000.42	1000.685	NaN
