onset	duration	stim_file	stim_lable	levelOfOcclusion	stim_started	stim_stopped	key_time	key_fix	stim_started_1	stim_stopped_1	key_time_1	key_fix_1
40.002	4	Aircraft1_10%_2.jpg	0	0.1	40.002	43.74	42.539	0	40.002	43.74	42.539	0
44.028	4	Aircraft1_10%_39.jpg	0	0.1	44.028	47.759	47.228	0	44.028	47.759	47.228	0
48.041	4	Aircraft2_10%_26.jpg	1	0.1	48.041	51.777	49.708	1	48.041	51.777	49.708	1
52.061	4	Aircraft1_10%_15.jpg	0	0.1	52.061	55.791	54.786	0	52.061	55.791	54.786	0
56.06	4	Aircraft2_10%_16.jpg	1	0.1	56.06	59.79	57.126	1	56.06	59.79	57.126	1
60.074	4	rest.jpg	NaN	NaN	60.074	63.809	64.074	NaN	60.074	63.809	64.074	NaN
64.041	4	rest.jpg	NaN	NaN	64.041	67.776	68.041	NaN	64.041	67.776	68.041	NaN
68.009	4	rest.jpg	NaN	NaN	68.009	71.747	72.009	NaN	68.009	71.747	72.009	NaN
72.022	4	Aircraft2_90%_14.jpg	1	0.9	72.022	75.753	75.161	1	72.022	75.753	75.161	1
76.032	4	Aircraft2_90%_5.jpg	1	0.9	76.032	79.768	78.517	1	76.032	79.768	78.517	1
80.029	4	Aircraft2_90%_15.jpg	1	0.9	80.029	83.758	83.448	1	80.029	83.758	83.448	1
84.033	4	Aircraft2_90%_19.jpg	1	0.9	84.033	87.77	86.531	1	84.033	87.77	86.531	1
88.029	4	Aircraft1_90%_31.jpg	0	0.9	88.029	91.76	91.37	0	88.029	91.76	91.37	0
92.038	4	rest.jpg	NaN	NaN	92.038	95.772	96.038	NaN	92.038	95.772	96.038	NaN
96.017	4	rest.jpg	NaN	NaN	96.017	99.748	100.017	NaN	96.017	99.748	100.017	NaN
99.982	4	rest.jpg	NaN	NaN	99.982	103.719	103.982	NaN	99.982	103.719	103.982	NaN
103.985	4	Aircraft2_70%_4.jpg	1	0.75	103.985	107.718	106.87	1	103.985	107.718	106.87	1
107.985	4	Aircraft1_70%_43.jpg	0	0.75	107.985	111.717	111.985	0	107.985	111.717	111.985	0
111.984	4	Aircraft1_70%_9.jpg	0	0.75	111.984	115.722	112.202	0	111.984	115.722	112.202	0
116.004	4	Aircraft1_70%_11.jpg	0	0.75	116.004	119.74	118.929	0	116.004	119.74	118.929	0
120.005	4	Aircraft1_70%_50.jpg	0	0.75	120.005	123.742	121.25	0	120.005	123.742	121.25	0
124.005	4	rest.jpg	NaN	NaN	124.005	127.736	128.005	NaN	124.005	127.736	128.005	NaN
127.985	4	rest.jpg	NaN	NaN	127.985	131.721	131.985	NaN	127.985	131.721	131.985	NaN
131.952	4	rest.jpg	NaN	NaN	131.952	135.688	135.952	NaN	131.952	135.688	135.952	NaN
135.952	4	Aircraft1_10%_36.jpg	0	0.1	135.952	139.683	138.947	0	135.952	139.683	138.947	0
139.95	4	Aircraft1_10%_35.jpg	0	0.1	139.95	143.683	143.341	0	139.95	143.683	143.341	0
143.947	4	Aircraft2_10%_3.jpg	1	0.1	143.947	147.683	144.991	1	143.947	147.683	144.991	1
147.968	4	Aircraft1_10%_5.jpg	0	0.1	147.968	151.703	151.098	0	147.968	151.703	151.098	0
151.989	4	Aircraft1_10%_48.jpg	0	0.1	151.989	155.728	154.599	0	151.989	155.728	154.599	0
156.007	4	rest.jpg	NaN	NaN	156.007	159.743	160.007	NaN	156.007	159.743	160.007	NaN
159.993	4	rest.jpg	NaN	NaN	159.993	163.73	163.993	NaN	159.993	163.73	163.993	NaN
163.979	4	rest.jpg	NaN	NaN	163.979	167.71	167.979	NaN	163.979	167.71	167.979	NaN
167.984	4	Aircraft1_90%_3.jpg	0	0.9	167.984	171.715	169.897	0	167.984	171.715	169.897	0
171.995	4	Aircraft2_90%_28.jpg	1	0.9	171.995	175.732	175.086	1	171.995	175.732	175.086	1
176.008	4	Aircraft1_90%_24.jpg	0	0.9	176.008	179.739	178.761	0	176.008	179.739	178.761	0
180	4	Aircraft2_90%_39.jpg	1	0.9	180	183.732	184	1	180	183.732	184	1
184.009	4	Aircraft2_90%_8.jpg	1	0.9	184.009	187.748	184.143	1	184.009	187.748	184.143	1
188.024	4	rest.jpg	NaN	NaN	188.024	191.757	192.024	NaN	188.024	191.757	192.024	NaN
192.004	4	rest.jpg	NaN	NaN	192.004	195.735	196.004	NaN	192.004	195.735	196.004	NaN
195.967	4	rest.jpg	NaN	NaN	195.967	199.703	199.967	NaN	195.967	199.703	199.967	NaN
199.972	4	Aircraft2_70%_18.jpg	1	0.75	199.972	203.703	202.079	1	199.972	203.703	202.079	1
203.985	4	Aircraft1_70%_29.jpg	0	0.75	203.985	207.718	207.374	0	203.985	207.718	207.374	0
208.001	4	Aircraft2_70%_1.jpg	1	0.75	208.001	211.736	209.982	1	208.001	211.736	209.982	1
212.019	4	Aircraft1_70%_26.jpg	0	0.75	212.019	215.756	214.625	0	212.019	215.756	214.625	0
216.039	4	Aircraft2_70%_34.jpg	1	0.75	216.039	219.77	218.63	1	216.039	219.77	218.63	1
220.051	4	rest.jpg	NaN	NaN	220.051	223.781	224.051	NaN	220.051	223.781	224.051	NaN
224.023	4	rest.jpg	NaN	NaN	224.023	227.756	228.023	NaN	224.023	227.756	228.023	NaN
228.006	4	rest.jpg	NaN	NaN	228.006	231.743	232.006	NaN	228.006	231.743	232.006	NaN
232.027	4	Aircraft2_10%_17.jpg	1	0.1	232.027	235.758	234.609	1	232.027	235.758	234.609	1
236.025	4	Aircraft2_10%_11.jpg	1	0.1	236.025	239.763	239.133	1	236.025	239.763	239.133	1
240.031	4	Aircraft1_10%_20.jpg	0	0.1	240.031	243.763	242.528	0	240.031	243.763	242.528	0
244.043	4	Aircraft2_10%_47.jpg	1	0.1	244.043	247.774	246.53	1	244.043	247.774	246.53	1
248.039	4	Aircraft2_10%_45.jpg	1	0.1	248.039	251.769	251.338	1	248.039	251.769	251.338	1
252.033	4	rest.jpg	NaN	NaN	252.033	255.762	256.033	NaN	252.033	255.762	256.033	NaN
256.004	4	rest.jpg	NaN	NaN	256.004	259.741	260.004	NaN	256.004	259.741	260.004	NaN
259.99	4	rest.jpg	NaN	NaN	259.99	263.723	263.99	NaN	259.99	263.723	263.99	NaN
264.005	4	Aircraft1_90%_25.jpg	0	0.9	264.005	267.739	266.567	0	264.005	267.739	266.567	0
268.017	4	Aircraft2_90%_49.jpg	1	0.9	268.017	271.748	270.622	1	268.017	271.748	270.622	1
272.022	4	Aircraft2_90%_10.jpg	1	0.9	272.022	275.758	274.684	1	272.022	275.758	274.684	1
276.019	4	Aircraft2_90%_12.jpg	1	0.9	276.019	279.756	279.313	1	276.019	279.756	279.313	1
280.031	4	Aircraft2_90%_7.jpg	1	0.9	280.031	283.77	282.511	1	280.031	283.77	282.511	1
284.034	4	rest.jpg	NaN	NaN	284.034	287.764	288.034	NaN	284.034	287.764	288.034	NaN
288.01	4	rest.jpg	NaN	NaN	288.01	291.746	292.01	NaN	288.01	291.746	292.01	NaN
291.993	4	rest.jpg	NaN	NaN	291.993	295.724	295.993	NaN	291.993	295.724	295.993	NaN
296.004	4	Aircraft1_70%_32.jpg	0	0.75	296.004	299.739	298.156	0	296.004	299.739	298.156	0
300.018	4	Aircraft1_70%_49.jpg	0	0.75	300.018	303.754	302.332	0	300.018	303.754	302.332	0
304.016	4	Aircraft2_70%_22.jpg	1	0.75	304.016	307.746	306.912	1	304.016	307.746	306.912	1
308.027	4	Aircraft1_70%_34.jpg	0	0.75	308.027	311.758	312.027	0	308.027	311.758	312.027	0
312.024	4	Aircraft1_70%_14.jpg	0	0.75	312.024	315.757	315.642	0	312.024	315.757	315.642	0
316.036	4	rest.jpg	NaN	NaN	316.036	319.77	320.036	NaN	316.036	319.77	320.036	NaN
320.019	4	rest.jpg	NaN	NaN	320.019	323.751	324.019	NaN	320.019	323.751	324.019	NaN
323.998	4	rest.jpg	NaN	NaN	323.998	327.732	327.998	NaN	323.998	327.732	327.998	NaN
327.999	4	Aircraft1_10%_1.jpg	0	0.1	327.999	331.736	330.145	0	327.999	331.736	330.145	0
331.998	4	Aircraft1_10%_47.jpg	0	0.1	331.998	335.735	334.099	0	331.998	335.735	334.099	0
336.015	4	Aircraft1_10%_40.jpg	0	0.1	336.015	339.749	337.993	0	336.015	339.749	337.993	0
340.032	4	Aircraft1_10%_27.jpg	0	0.1	340.032	343.769	342.364	0	340.032	343.769	342.364	0
344.033	4	Aircraft2_10%_35.jpg	1	0.1	344.033	347.769	346.691	1	344.033	347.769	346.691	1
348.033	4	rest.jpg	NaN	NaN	348.033	351.768	352.033	NaN	348.033	351.768	352.033	NaN
352.016	4	rest.jpg	NaN	NaN	352.016	355.755	356.016	NaN	352.016	355.755	356.016	NaN
356.005	4	rest.jpg	NaN	NaN	356.005	359.74	360.005	NaN	356.005	359.74	360.005	NaN
360.017	4	Aircraft1_90%_32.jpg	0	0.9	360.017	363.749	362.287	0	360.017	363.749	362.287	0
364.025	4	Aircraft1_90%_49.jpg	0	0.9	364.025	367.756	368.025	0	364.025	367.756	368.025	0
368.018	4	Aircraft2_90%_22.jpg	1	0.9	368.018	371.751	370.603	1	368.018	371.751	370.603	1
372.032	4	Aircraft1_90%_34.jpg	0	0.9	372.032	375.765	375.333	0	372.032	375.765	375.333	0
376.029	4	Aircraft1_90%_14.jpg	0	0.9	376.029	379.766	378.779	0	376.029	379.766	378.779	0
380.048	4	rest.jpg	NaN	NaN	380.048	383.785	384.048	NaN	380.048	383.785	384.048	NaN
384.033	4	rest.jpg	NaN	NaN	384.033	387.765	388.033	NaN	384.033	387.765	388.033	NaN
387.999	4	rest.jpg	NaN	NaN	387.999	391.735	391.999	NaN	387.999	391.735	391.999	NaN
392.002	4	Aircraft2_70%_24.jpg	1	0.75	392.002	395.737	393.591	1	392.002	395.737	393.591	1
395.999	4	Aircraft2_70%_2.jpg	1	0.75	395.999	399.737	398.285	1	395.999	399.737	398.285	1
400.003	4	Aircraft2_70%_43.jpg	1	0.75	400.003	403.734	403.079	1	400.003	403.734	403.079	1
404.017	4	Aircraft2_70%_46.jpg	1	0.75	404.017	407.754	406.879	1	404.017	407.754	406.879	1
408.041	4	Aircraft1_70%_42.jpg	0	0.75	408.041	411.78	410.551	0	408.041	411.78	410.551	0
412.065	4	rest.jpg	NaN	NaN	412.065	415.797	416.065	NaN	412.065	415.797	416.065	NaN
416.045	4	rest.jpg	NaN	NaN	416.045	419.781	420.045	NaN	416.045	419.781	420.045	NaN
420.013	4	rest.jpg	NaN	NaN	420.013	423.75	424.013	NaN	420.013	423.75	424.013	NaN
424.018	4	Aircraft2_10%_30.jpg	1	0.1	424.018	427.755	426.958	1	424.018	427.755	426.958	1
428.018	4	Aircraft2_10%_27.jpg	1	0.1	428.018	431.749	430.732	1	428.018	431.749	430.732	1
432.031	4	Aircraft2_10%_50.jpg	1	0.1	432.031	435.764	434.252	1	432.031	435.764	434.252	1
436.053	4	Aircraft2_10%_29.jpg	1	0.1	436.053	439.79	438.608	1	436.053	439.79	438.608	1
440.081	4	Aircraft1_10%_6.jpg	0	0.1	440.081	443.811	441.786	0	440.081	443.811	441.786	0
444.093	4	rest.jpg	NaN	NaN	444.093	447.83	448.093	NaN	444.093	447.83	448.093	NaN
448.081	4	rest.jpg	NaN	NaN	448.081	451.81	452.081	NaN	448.081	451.81	452.081	NaN
452.061	4	rest.jpg	NaN	NaN	452.061	455.795	456.061	NaN	452.061	455.795	456.061	NaN
456.057	4	Aircraft2_90%_18.jpg	1	0.9	456.057	459.792	459.119	1	456.057	459.792	459.119	1
460.074	4	Aircraft1_90%_29.jpg	0	0.9	460.074	463.811	462.228	0	460.074	463.811	462.228	0
464.089	4	Aircraft2_90%_1.jpg	1	0.9	464.089	467.821	468.089	1	464.089	467.821	468.089	1
468.096	4	Aircraft1_90%_26.jpg	0	0.9	468.096	471.827	468.097	0	468.096	471.827	468.097	0
472.107	4	Aircraft2_90%_34.jpg	1	0.9	472.107	475.845	474.162	1	472.107	475.845	474.162	1
476.113	4	rest.jpg	NaN	NaN	476.113	479.844	480.113	NaN	476.113	479.844	480.113	NaN
480.077	4	rest.jpg	NaN	NaN	480.077	483.809	484.077	NaN	480.077	483.809	484.077	NaN
484.057	4	rest.jpg	NaN	NaN	484.057	487.794	488.057	NaN	484.057	487.794	488.057	NaN
488.079	4	Aircraft1_70%_17.jpg	0	0.75	488.079	491.811	490.337	0	488.079	491.811	490.337	0
492.078	4	Aircraft2_70%_42.jpg	1	0.75	492.078	495.809	494.068	1	492.078	495.809	494.068	1
496.092	4	Aircraft2_70%_44.jpg	1	0.75	496.092	499.822	498.547	1	496.092	499.822	498.547	1
500.091	4	Aircraft1_70%_10.jpg	0	0.75	500.091	503.827	502.018	0	500.091	503.827	502.018	0
504.095	4	Aircraft2_70%_25.jpg	1	0.75	504.095	507.829	505.487	1	504.095	507.829	505.487	1
508.109	4	rest.jpg	NaN	NaN	508.109	511.842	512.109	NaN	508.109	511.842	512.109	NaN
512.075	4	rest.jpg	NaN	NaN	512.075	515.807	516.075	NaN	512.075	515.807	516.075	NaN
516.04	4	rest.jpg	NaN	NaN	516.04	519.773	520.04	NaN	516.04	519.773	520.04	NaN
520.06	4	Aircraft1_10%_38.jpg	0	0.1	520.06	523.791	521.758	0	520.06	523.791	521.758	0
524.06	4	Aircraft2_10%_21.jpg	1	0.1	524.06	527.796	525.185	1	524.06	527.796	525.185	1
528.064	4	Aircraft1_10%_16.jpg	0	0.1	528.064	531.799	529.595	0	528.064	531.799	529.595	0
532.066	4	Aircraft1_10%_46.jpg	0	0.1	532.066	535.799	533.16	0	532.066	535.799	533.16	0
536.062	4	Aircraft2_10%_40.jpg	1	0.1	536.062	539.797	537.77	1	536.062	539.797	537.77	1
540.085	4	rest.jpg	NaN	NaN	540.085	543.815	544.085	NaN	540.085	543.815	544.085	NaN
544.048	4	rest.jpg	NaN	NaN	544.048	547.781	548.048	NaN	544.048	547.781	548.048	NaN
548.013	4	rest.jpg	NaN	NaN	548.013	551.745	552.013	NaN	548.013	551.745	552.013	NaN
552.025	4	Aircraft2_90%_4.jpg	1	0.9	552.025	555.763	554.041	1	552.025	555.763	554.041	1
556.041	4	Aircraft1_90%_43.jpg	0	0.9	556.041	559.779	559.158	0	556.041	559.779	559.158	0
560.04	4	Aircraft1_90%_9.jpg	0	0.9	560.04	563.774	563.066	0	560.04	563.774	563.066	0
564.052	4	Aircraft1_90%_11.jpg	0	0.9	564.052	567.788	567.59	0	564.052	567.788	567.59	0
568.072	4	Aircraft1_90%_50.jpg	0	0.9	568.072	571.804	569.772	0	568.072	571.804	569.772	0
572.083	4	rest.jpg	NaN	NaN	572.083	575.815	576.083	NaN	572.083	575.815	576.083	NaN
576.048	4	rest.jpg	NaN	NaN	576.048	579.778	580.048	NaN	576.048	579.778	580.048	NaN
580.01	4	rest.jpg	NaN	NaN	580.01	583.746	584.01	NaN	580.01	583.746	584.01	NaN
584.012	4	Aircraft1_70%_12.jpg	0	0.75	584.012	587.748	586.099	0	584.012	587.748	586.099	0
588.035	4	Aircraft2_70%_32.jpg	1	0.75	588.035	591.766	590.457	1	588.035	591.766	590.457	1
592.047	4	Aircraft2_70%_48.jpg	1	0.75	592.047	595.779	594.868	1	592.047	595.779	594.868	1
596.067	4	Aircraft1_70%_19.jpg	0	0.75	596.067	599.796	597.994	0	596.067	599.796	597.994	0
600.062	4	Aircraft1_70%_33.jpg	0	0.75	600.062	603.794	602.598	0	600.062	603.794	602.598	0
604.076	4	rest.jpg	NaN	NaN	604.076	607.813	608.076	NaN	604.076	607.813	608.076	NaN
608.062	4	rest.jpg	NaN	NaN	608.062	611.792	612.062	NaN	608.062	611.792	612.062	NaN
612.034	4	rest.jpg	NaN	NaN	612.034	615.766	616.034	NaN	612.034	615.766	616.034	NaN
616.056	4	Aircraft2_10%_23.jpg	1	0.1	616.056	619.792	617.548	1	616.056	619.792	617.548	1
620.057	4	Aircraft1_10%_28.jpg	0	0.1	620.057	623.793	621.405	0	620.057	623.793	621.405	0
624.082	4	Aircraft2_10%_13.jpg	1	0.1	624.082	627.815	625.603	1	624.082	627.815	625.603	1
628.08	4	Aircraft1_10%_45.jpg	0	0.1	628.08	631.816	630.16	0	628.08	631.816	630.16	0
632.106	4	Aircraft1_10%_37.jpg	0	0.1	632.106	635.836	634.103	0	632.106	635.836	634.103	0
636.117	4	rest.jpg	NaN	NaN	636.117	639.85	640.117	NaN	636.117	639.85	640.117	NaN
640.1	4	rest.jpg	NaN	NaN	640.1	643.83	644.1	NaN	640.1	643.83	644.1	NaN
644.063	4	rest.jpg	NaN	NaN	644.063	647.8	648.063	NaN	644.063	647.8	648.063	NaN
648.061	4	Aircraft2_90%_33.jpg	1	0.9	648.061	651.796	650.061	1	648.061	651.796	650.061	1
652.076	4	Aircraft2_90%_38.jpg	1	0.9	652.076	655.809	653.459	1	652.076	655.809	653.459	1
656.071	4	Aircraft1_90%_30.jpg	0	0.9	656.071	659.801	657.643	0	656.071	659.801	657.643	0
660.065	4	Aircraft1_90%_41.jpg	0	0.9	660.065	663.795	662.546	0	660.065	663.795	662.546	0
664.082	4	Aircraft1_90%_18.jpg	0	0.9	664.082	667.811	665.652	0	664.082	667.811	665.652	0
668.096	4	rest.jpg	NaN	NaN	668.096	671.833	672.096	NaN	668.096	671.833	672.096	NaN
672.081	4	rest.jpg	NaN	NaN	672.081	675.818	676.081	NaN	672.081	675.818	676.081	NaN
676.05	4	rest.jpg	NaN	NaN	676.05	679.782	680.05	NaN	676.05	679.782	680.05	NaN
680.049	4	Aircraft2_70%_9.jpg	1	0.75	680.049	683.784	682.289	1	680.049	683.784	682.289	1
684.066	4	Aircraft2_70%_6.jpg	1	0.75	684.066	687.796	685.55	1	684.066	687.796	685.55	1
688.085	4	Aircraft1_70%_23.jpg	0	0.75	688.085	691.817	689.664	0	688.085	691.817	689.664	0
692.107	4	Aircraft1_70%_21.jpg	0	0.75	692.107	695.837	693.077	0	692.107	695.837	693.077	0
696.103	4	Aircraft2_70%_36.jpg	1	0.75	696.103	699.832	697.308	1	696.103	699.832	697.308	1
700.113	4	rest.jpg	NaN	NaN	700.113	703.845	704.113	NaN	700.113	703.845	704.113	NaN
704.077	4	rest.jpg	NaN	NaN	704.077	707.814	708.077	NaN	704.077	707.814	708.077	NaN
708.06	4	rest.jpg	NaN	NaN	708.06	711.792	712.06	NaN	708.06	711.792	712.06	NaN
712.06	4	Aircraft2_10%_41.jpg	1	0.1	712.06	715.791	713.506	1	712.06	715.791	713.506	1
716.077	4	Aircraft1_10%_22.jpg	0	0.1	716.077	719.809	717.509	0	716.077	719.809	717.509	0
720.093	4	Aircraft1_10%_44.jpg	0	0.1	720.093	723.823	721.573	0	720.093	723.823	721.573	0
724.111	4	Aircraft1_10%_1.jpg	0	0.1	724.111	727.841	725.858	0	724.111	727.841	725.858	0
728.126	4	Aircraft2_10%_37.jpg	1	0.1	728.126	731.858	729.473	1	728.126	731.858	729.473	1
732.142	4	rest.jpg	NaN	NaN	732.142	735.871	736.142	NaN	732.142	735.871	736.142	NaN
736.103	4	rest.jpg	NaN	NaN	736.103	739.835	740.103	NaN	736.103	739.835	740.103	NaN
740.084	4	rest.jpg	NaN	NaN	740.084	743.814	744.084	NaN	740.084	743.814	744.084	NaN
744.093	4	Aircraft2_90%_31.jpg	1	0.9	744.093	747.823	746.099	1	744.093	747.823	746.099	1
748.099	4	Aircraft1_90%_4.jpg	0	0.9	748.099	751.829	750.345	0	748.099	751.829	750.345	0
752.09	4	Aircraft2_90%_20.jpg	1	0.9	752.09	755.82	753.572	1	752.09	755.82	753.572	1
756.099	4	Aircraft1_90%_7.jpg	0	0.9	756.099	759.836	757.865	0	756.099	759.836	757.865	0
760.11	4	Aircraft1_90%_8.jpg	0	0.9	760.11	763.84	761.749	0	760.11	763.84	761.749	0
764.123	4	rest.jpg	NaN	NaN	764.123	767.859	768.123	NaN	764.123	767.859	768.123	NaN
768.111	4	rest.jpg	NaN	NaN	768.111	771.843	772.111	NaN	768.111	771.843	772.111	NaN
772.093	4	rest.jpg	NaN	NaN	772.093	775.83	776.093	NaN	772.093	775.83	776.093	NaN
776.097	4	Aircraft2_70%_14.jpg	1	0.75	776.097	779.829	777.926	1	776.097	779.829	777.926	1
780.113	4	Aircraft2_70%_5.jpg	1	0.75	780.113	783.848	782.171	1	780.113	783.848	782.171	1
784.115	4	Aircraft2_70%_15.jpg	1	0.75	784.115	787.85	785.77	1	784.115	787.85	785.77	1
788.113	4	Aircraft2_70%_19.jpg	1	0.75	788.113	791.846	789.308	1	788.113	791.846	789.308	1
792.128	4	Aircraft1_70%_31.jpg	0	0.75	792.128	795.865	793.834	0	792.128	795.865	793.834	0
796.144	4	rest.jpg	NaN	NaN	796.144	799.877	800.144	NaN	796.144	799.877	800.144	NaN
800.11	4	rest.jpg	NaN	NaN	800.11	803.839	804.11	NaN	800.11	803.839	804.11	NaN
804.088	4	rest.jpg	NaN	NaN	804.088	807.823	808.088	NaN	804.088	807.823	808.088	NaN
808.09	4	Aircraft2_10%_9.jpg	1	0.1	808.09	811.825	809.51	1	808.09	811.825	809.51	1
812.089	4	Aircraft2_10%_6.jpg	1	0.1	812.089	815.821	813.671	1	812.089	815.821	813.671	1
816.111	4	Aircraft1_10%_23.jpg	0	0.1	816.111	819.841	817.414	0	816.111	819.841	817.414	0
820.128	4	Aircraft1_10%_21.jpg	0	0.1	820.128	823.858	821.207	0	820.128	823.858	821.207	0
824.122	4	Aircraft2_10%_36.jpg	1	0.1	824.122	827.852	825.464	1	824.122	827.852	825.464	1
828.117	4	rest.jpg	NaN	NaN	828.117	831.847	832.117	NaN	828.117	831.847	832.117	NaN
832.098	4	rest.jpg	NaN	NaN	832.098	835.831	836.098	NaN	832.098	835.831	836.098	NaN
836.063	4	rest.jpg	NaN	NaN	836.063	839.798	840.063	NaN	836.063	839.798	840.063	NaN
840.058	4	Aircraft2_90%_24.jpg	1	0.9	840.058	843.788	841.874	1	840.058	843.788	841.874	1
844.069	4	Aircraft2_90%_2.jpg	1	0.9	844.069	847.801	846.107	1	844.069	847.801	846.107	1
848.077	4	Aircraft2_90%_43.jpg	1	0.9	848.077	851.812	849.416	1	848.077	851.812	849.416	1
852.074	4	Aircraft2_90%_46.jpg	1	0.9	852.074	855.806	853.972	1	852.074	855.806	853.972	1
856.078	4	Aircraft1_90%_42.jpg	0	0.9	856.078	859.809	858.171	0	856.078	859.809	858.171	0
860.09	4	rest.jpg	NaN	NaN	860.09	863.827	864.09	NaN	860.09	863.827	864.09	NaN
864.06	4	rest.jpg	NaN	NaN	864.06	867.792	868.06	NaN	864.06	867.792	868.06	NaN
868.045	4	rest.jpg	NaN	NaN	868.045	871.779	872.045	NaN	868.045	871.779	872.045	NaN
872.067	4	Aircraft1_70%_3.jpg	0	0.75	872.067	875.797	874.399	0	872.067	875.797	874.399	0
876.081	4	Aircraft2_70%_28.jpg	1	0.75	876.081	879.814	878.108	1	876.081	879.814	878.108	1
880.081	4	Aircraft1_70%_24.jpg	0	0.75	880.081	883.818	881.294	0	880.081	883.818	881.294	0
884.086	4	Aircraft2_70%_39.jpg	1	0.75	884.086	887.822	886.022	1	884.086	887.822	886.022	1
888.091	4	Aircraft2_70%_8.jpg	1	0.75	888.091	891.821	890.857	1	888.091	891.821	890.857	1
892.104	4	rest.jpg	NaN	NaN	892.104	895.836	896.104	NaN	892.104	895.836	896.104	NaN
896.087	4	rest.jpg	NaN	NaN	896.087	899.819	900.087	NaN	896.087	899.819	900.087	NaN
900.07	4	rest.jpg	NaN	NaN	900.07	903.804	904.07	NaN	900.07	903.804	904.07	NaN
904.072	4	Aircraft1_10%_12.jpg	0	0.1	904.072	907.807	905.415	0	904.072	907.807	905.415	0
908.093	4	Aircraft2_10%_32.jpg	1	0.1	908.093	911.83	909.943	1	908.093	911.83	909.943	1
912.115	4	Aircraft2_10%_48.jpg	1	0.1	912.115	915.85	913.789	1	912.115	915.85	913.789	1
916.133	4	Aircraft1_10%_19.jpg	0	0.1	916.133	919.863	917.506	0	916.133	919.863	917.506	0
920.13	4	Aircraft1_10%_33.jpg	0	0.1	920.13	923.86	922.095	0	920.13	923.86	922.095	0
924.144	4	rest.jpg	NaN	NaN	924.144	927.88	928.144	NaN	924.144	927.88	928.144	NaN
928.116	4	rest.jpg	NaN	NaN	928.116	931.848	932.116	NaN	928.116	931.848	932.116	NaN
932.096	4	rest.jpg	NaN	NaN	932.096	935.833	936.096	NaN	932.096	935.833	936.096	NaN
936.095	4	Aircraft1_90%_17.jpg	0	0.9	936.095	939.827	937.664	0	936.095	939.827	937.664	0
940.087	4	Aircraft2_90%_42.jpg	1	0.9	940.087	943.817	942.287	1	940.087	943.817	942.287	1
944.077	4	Aircraft2_90%_44.jpg	1	0.9	944.077	947.807	945.544	1	944.077	947.807	945.544	1
948.082	4	Aircraft1_90%_10.jpg	0	0.9	948.082	951.817	949.791	0	948.082	951.817	949.791	0
952.078	4	Aircraft2_90%_25.jpg	1	0.9	952.078	955.81	954.376	1	952.078	955.81	954.376	1
956.078	4	rest.jpg	NaN	NaN	956.078	959.808	960.078	NaN	956.078	959.808	960.078	NaN
960.041	4	rest.jpg	NaN	NaN	960.041	963.774	964.041	NaN	960.041	963.774	964.041	NaN
964.024	4	rest.jpg	NaN	NaN	964.024	967.756	968.024	NaN	964.024	967.756	968.024	NaN
968.035	4	Aircraft1_70%_25.jpg	0	0.75	968.035	971.766	969.335	0	968.035	971.766	969.335	0
972.048	4	Aircraft2_70%_49.jpg	1	0.75	972.048	975.777	973.855	1	972.048	975.777	973.855	1
976.038	4	Aircraft2_70%_10.jpg	1	0.75	976.038	979.773	978.527	1	976.038	979.773	978.527	1
980.042	4	Aircraft2_70%_12.jpg	1	0.75	980.042	983.774	983.06	1	980.042	983.774	983.06	1
984.062	4	Aircraft2_70%_7.jpg	1	0.75	984.062	987.792	986.887	1	984.062	987.792	986.887	1
988.073	4	rest.jpg	NaN	NaN	988.073	991.805	992.073	NaN	988.073	991.805	992.073	NaN
992.059	4	rest.jpg	NaN	NaN	992.059	995.795	996.059	NaN	992.059	995.795	996.059	NaN
996.027	4	rest.jpg	NaN	NaN	996.027	999.763	1000.027	NaN	996.027	999.763	1000.027	NaN
