sub	run	block	trail	oneset	duration	stim_file	stim_lable	level of occlusion	stim_started	stim_stopped	key_time	key_fix
37	2	1	1	39.98	4	Aircraft1_10%_17.jpg	0	0.1	39.98	43.709	40.962	0
37	2	1	2	43.99	4	Aircraft2_10%_42.jpg	1	0.1	43.99	47.725	44.895	1
37	2	1	3	47.987	4	Aircraft2_10%_44.jpg	1	0.1	47.987	51.717	48.87	1
37	2	1	4	51.984	4	Aircraft1_10%_10.jpg	0	0.1	51.984	55.714	52.837	0
37	2	1	5	55.995	4	Aircraft2_10%_25.jpg	1	0.1	55.995	59.731	56.756	1
37	2	1	6	59.996	4	rest.jpg	n/a	n/a	59.996	63.731	63.996	n/a
37	2	1	7	63.978	4	rest.jpg	n/a	n/a	63.978	67.717	67.978	n/a
37	2	1	8	67.966	4	rest.jpg	n/a	n/a	67.966	71.698	71.966	n/a
37	2	2	9	71.977	4	Aircraft1_90%_12.jpg	0	0.9	71.977	75.711	73.439	0
37	2	2	10	75.991	4	Aircraft2_90%_32.jpg	1	0.9	75.991	79.722	77.1	1
37	2	2	11	79.982	4	Aircraft2_90%_48.jpg	1	0.9	79.982	83.714	81.432	1
37	2	2	12	83.995	4	Aircraft1_90%_19.jpg	0	0.9	83.995	87.728	85.693	0
37	2	2	13	88.007	4	Aircraft1_90%_33.jpg	0	0.9	88.007	91.742	89.679	0
37	2	2	14	92.025	4	rest.jpg	n/a	n/a	92.025	95.756	96.025	n/a
37	2	2	15	95.988	4	rest.jpg	n/a	n/a	95.988	99.724	99.988	n/a
37	2	2	16	99.959	4	rest.jpg	n/a	n/a	99.959	103.696	103.959	n/a
37	2	3	17	103.958	4	Aircraft2_70%_33.jpg	1	0.75	103.958	107.693	105.091	1
37	2	3	18	107.959	4	Aircraft2_70%_38.jpg	1	0.75	107.959	111.695	109.358	1
37	2	3	19	111.962	4	Aircraft1_70%_30.jpg	0	0.75	111.962	115.692	113.662	0
37	2	3	20	115.957	4	Aircraft1_70%_41.jpg	0	0.75	115.957	119.688	117.513	0
37	2	3	21	119.971	4	Aircraft1_70%_18.jpg	0	0.75	119.971	123.704	121.431	0
37	2	3	22	123.973	4	rest.jpg	n/a	n/a	123.973	127.705	127.973	n/a
37	2	3	23	127.949	4	rest.jpg	n/a	n/a	127.949	131.68	131.949	n/a
37	2	3	24	131.914	4	rest.jpg	n/a	n/a	131.914	135.643	135.914	n/a
37	2	4	25	135.919	4	Aircraft2_10%_24.jpg	1	0.1	135.919	139.655	136.987	1
37	2	4	26	139.949	4	Aircraft2_10%_2.jpg	1	0.1	139.949	143.683	140.998	1
37	2	4	27	143.97	4	Aircraft2_10%_43.jpg	1	0.1	143.97	147.702	145.381	1
37	2	4	28	147.992	4	Aircraft2_10%_46.jpg	1	0.1	147.992	151.724	149.592	1
37	2	4	29	151.987	4	Aircraft1_10%_42.jpg	0	0.1	151.987	155.72	153.161	0
37	2	4	30	155.983	4	rest.jpg	n/a	n/a	155.983	159.713	159.983	n/a
37	2	4	31	159.956	4	rest.jpg	n/a	n/a	159.956	163.688	163.956	n/a
37	2	4	32	163.924	4	rest.jpg	n/a	n/a	163.924	167.66	167.924	n/a
37	2	5	33	167.937	4	Aircraft2_90%_9.jpg	1	0.9	167.937	171.67	169.481	1
37	2	5	34	171.932	4	Aircraft2_90%_6.jpg	1	0.9	171.932	175.669	173.997	1
37	2	5	35	175.931	4	Aircraft1_90%_23.jpg	0	0.9	175.931	179.665	178.13	0
37	2	5	36	179.941	4	Aircraft1_90%_21.jpg	0	0.9	179.941	183.676	181.724	0
37	2	5	37	183.938	4	Aircraft2_90%_36.jpg	1	0.9	183.938	187.674	185.582	1
37	2	5	38	187.952	4	rest.jpg	n/a	n/a	187.952	191.682	191.952	n/a
37	2	5	39	191.912	4	rest.jpg	n/a	n/a	191.912	195.646	195.912	n/a
37	2	5	40	195.878	4	rest.jpg	n/a	n/a	195.878	199.608	199.878	n/a
37	2	6	41	199.875	4	Aircraft2_70%_31.jpg	1	0.75	199.875	203.611	201.147	1
37	2	6	42	203.898	4	Aircraft1_70%_4.jpg	0	0.75	203.898	207.632	205.946	0
37	2	6	43	207.917	4	Aircraft2_70%_20.jpg	1	0.75	207.917	211.652	209.97	1
37	2	6	44	211.939	4	Aircraft1_70%_7.jpg	0	0.75	211.939	215.672	213.748	0
37	2	6	45	215.956	4	Aircraft1_70%_8.jpg	0	0.75	215.956	219.686	217.602	0
37	2	6	46	219.97	4	rest.jpg	n/a	n/a	219.97	223.709	223.97	n/a
37	2	6	47	223.944	4	rest.jpg	n/a	n/a	223.944	227.673	227.944	n/a
37	2	6	48	227.905	4	rest.jpg	n/a	n/a	227.905	231.634	231.905	n/a
37	2	7	49	231.919	4	Aircraft2_10%_31.jpg	1	0.1	231.919	235.651	233.113	1
37	2	7	50	235.939	4	Aircraft1_10%_4.jpg	0	0.1	235.939	239.677	236.831	0
37	2	7	51	239.941	4	Aircraft2_10%_20.jpg	1	0.1	239.941	243.677	240.765	1
37	2	7	52	243.96	4	Aircraft1_10%_7.jpg	0	0.1	243.96	247.693	244.811	0
37	2	7	53	247.976	4	Aircraft1_10%_8.jpg	0	0.1	247.976	251.708	249.007	0
37	2	7	54	251.993	4	rest.jpg	n/a	n/a	251.993	255.724	255.993	n/a
37	2	7	55	255.972	4	rest.jpg	n/a	n/a	255.972	259.707	259.972	n/a
37	2	7	56	259.946	4	rest.jpg	n/a	n/a	259.946	263.678	263.946	n/a
37	2	8	57	263.938	4	Aircraft2_90%_41.jpg	1	0.9	263.938	267.669	266.312	1
37	2	8	58	267.951	4	Aircraft1_90%_22.jpg	0	0.9	267.951	271.683	269.827	0
37	2	8	59	271.963	4	Aircraft1_90%_44.jpg	0	0.9	271.963	275.702	273.352	0
37	2	8	60	275.965	4	Aircraft1_90%_1.jpg	0	0.9	275.965	279.697	278.098	0
37	2	8	61	279.977	4	Aircraft2_90%_37.jpg	1	0.9	279.977	283.715	281.864	1
37	2	8	62	284.003	4	rest.jpg	n/a	n/a	284.003	287.736	288.003	n/a
37	2	8	63	287.967	4	rest.jpg	n/a	n/a	287.967	291.703	291.967	n/a
37	2	8	64	291.933	4	rest.jpg	n/a	n/a	291.933	295.662	295.933	n/a
37	2	9	65	295.941	4	Aircraft2_70%_41.jpg	1	0.75	295.941	299.671	297.445	1
37	2	9	66	299.936	4	Aircraft1_70%_22.jpg	0	0.75	299.936	303.672	301.773	0
37	2	9	67	303.938	4	Aircraft1_70%_44.jpg	0	0.75	303.938	307.67	306.024	0
37	2	9	68	307.937	4	Aircraft1_70%_1.jpg	0	0.75	307.937	311.673	309.737	0
37	2	9	69	311.939	4	Aircraft2_70%_37.jpg	1	0.75	311.939	315.669	313.836	1
37	2	9	70	315.937	4	rest.jpg	n/a	n/a	315.937	319.667	319.937	n/a
37	2	9	71	319.912	4	rest.jpg	n/a	n/a	319.912	323.646	323.912	n/a
37	2	9	72	323.895	4	rest.jpg	n/a	n/a	323.895	327.628	327.895	n/a
37	2	10	73	327.912	4	Aircraft2_10%_33.jpg	1	0.1	327.912	331.646	328.956	1
37	2	10	74	331.933	4	Aircraft2_10%_38.jpg	1	0.1	331.933	335.664	333.016	1
37	2	10	75	335.949	4	Aircraft1_10%_30.jpg	0	0.1	335.949	339.681	337.218	0
37	2	10	76	339.97	4	Aircraft1_10%_41.jpg	0	0.1	339.97	343.7	341.116	0
37	2	10	77	343.977	4	Aircraft1_10%_18.jpg	0	0.1	343.977	347.709	345.364	0
37	2	10	78	347.993	4	rest.jpg	n/a	n/a	347.993	351.726	351.993	n/a
37	2	10	79	351.958	4	rest.jpg	n/a	n/a	351.958	355.69	355.958	n/a
37	2	10	80	355.922	4	rest.jpg	n/a	n/a	355.922	359.653	359.922	n/a
37	2	11	81	359.914	4	Aircraft2_90%_23.jpg	1	0.9	359.914	363.648	361.687	1
37	2	11	82	363.908	4	Aircraft1_90%_28.jpg	0	0.9	363.908	367.637	366.444	0
37	2	11	83	367.91	4	Aircraft2_90%_13.jpg	1	0.9	367.91	371.639	370.649	1
37	2	11	84	371.919	4	Aircraft1_90%_45.jpg	0	0.9	371.919	375.656	373.65	0
37	2	11	85	375.917	4	Aircraft1_90%_37.jpg	0	0.9	375.917	379.651	377.836	0
37	2	11	86	379.915	4	rest.jpg	n/a	n/a	379.915	383.646	383.915	n/a
37	2	11	87	383.877	4	rest.jpg	n/a	n/a	383.877	387.614	387.877	n/a
37	2	11	88	387.845	4	rest.jpg	n/a	n/a	387.845	391.58	391.845	n/a
37	2	12	89	391.864	4	Aircraft1_70%_2.jpg	0	0.75	391.864	395.593	394.325	0
37	2	12	90	395.876	4	Aircraft1_70%_39.jpg	0	0.75	395.876	399.609	397.395	0
37	2	12	91	399.874	4	Aircraft2_70%_26.jpg	1	0.75	399.874	403.603	401.73	1
37	2	12	92	403.884	4	Aircraft1_70%_15.jpg	0	0.75	403.884	407.613	405.395	0
37	2	12	93	407.896	4	Aircraft2_70%_16.jpg	1	0.75	407.896	411.626	409.556	1
37	2	12	94	411.891	4	rest.jpg	n/a	n/a	411.891	415.626	415.891	n/a
37	2	12	95	415.856	4	rest.jpg	n/a	n/a	415.856	419.59	419.856	n/a
37	2	12	96	419.822	4	rest.jpg	n/a	n/a	419.822	423.553	423.822	n/a
37	2	13	97	423.834	4	Aircraft2_10%_4.jpg	1	0.1	423.834	427.569	424.764	1
37	2	13	98	427.838	4	Aircraft1_10%_43.jpg	0	0.1	427.838	431.567	428.778	0
37	2	13	99	431.835	4	Aircraft1_10%_9.jpg	0	0.1	431.835	435.563	432.84	0
37	2	13	100	435.83	4	Aircraft1_10%_11.jpg	0	0.1	435.83	439.565	436.722	0
37	2	13	101	439.845	4	Aircraft1_10%_50.jpg	0	0.1	439.845	443.574	441.033	0
37	2	13	102	443.857	4	rest.jpg	n/a	n/a	443.857	447.587	447.857	n/a
37	2	13	103	447.819	4	rest.jpg	n/a	n/a	447.819	451.548	451.819	n/a
37	2	13	104	451.779	4	rest.jpg	n/a	n/a	451.779	455.514	455.779	n/a
37	2	14	105	455.793	4	Aircraft1_90%_38.jpg	0	0.9	455.793	459.524	457.812	0
37	2	14	106	459.8	4	Aircraft2_90%_21.jpg	1	0.9	459.8	463.53	462.137	1
37	2	14	107	463.809	4	Aircraft1_90%_16.jpg	0	0.9	463.809	467.546	466.822	0
37	2	14	108	467.807	4	Aircraft1_90%_46.jpg	0	0.9	467.807	471.537	469.694	0
37	2	14	109	471.816	4	Aircraft2_90%_40.jpg	1	0.9	471.816	475.545	474.414	1
37	2	14	110	475.815	4	rest.jpg	n/a	n/a	475.815	479.546	479.815	n/a
37	2	14	111	479.778	4	rest.jpg	n/a	n/a	479.778	483.514	483.778	n/a
37	2	14	112	483.762	4	rest.jpg	n/a	n/a	483.762	487.493	487.762	n/a
37	2	15	113	487.774	4	Aircraft1_70%_36.jpg	0	0.75	487.774	491.503	488.913	0
37	2	15	114	491.786	4	Aircraft1_70%_35.jpg	0	0.75	491.786	495.515	494.026	0
37	2	15	115	495.798	4	Aircraft2_70%_3.jpg	1	0.75	495.798	499.527	496.962	1
37	2	15	116	499.811	4	Aircraft1_70%_5.jpg	0	0.75	499.811	503.543	502.049	0
37	2	15	117	503.829	4	Aircraft1_70%_48.jpg	0	0.75	503.829	507.562	505.374	0
37	2	15	118	507.844	4	rest.jpg	n/a	n/a	507.844	511.573	511.844	n/a
37	2	15	119	511.816	4	rest.jpg	n/a	n/a	511.816	515.55	515.816	n/a
37	2	15	120	515.781	4	rest.jpg	n/a	n/a	515.781	519.51	519.781	n/a
37	2	16	121	519.774	4	Aircraft2_10%_18.jpg	1	0.1	519.774	523.509	520.924	1
37	2	16	122	523.775	4	Aircraft1_10%_29.jpg	0	0.1	523.775	527.506	524.624	0
37	2	16	123	527.77	4	Aircraft2_10%_1.jpg	1	0.1	527.77	531.505	528.69	1
37	2	16	124	531.79	4	Aircraft1_10%_26.jpg	0	0.1	531.79	535.519	532.723	0
37	2	16	125	535.803	4	Aircraft2_10%_34.jpg	1	0.1	535.803	539.534	536.976	1
37	2	16	126	539.802	4	rest.jpg	n/a	n/a	539.802	543.536	543.802	n/a
37	2	16	127	543.782	4	rest.jpg	n/a	n/a	543.782	547.518	547.782	n/a
37	2	16	128	547.75	4	rest.jpg	n/a	n/a	547.75	551.481	551.75	n/a
37	2	17	129	551.74	4	Aircraft2_90%_30.jpg	1	0.9	551.74	555.474	553.862	1
37	2	17	130	555.756	4	Aircraft2_90%_27.jpg	1	0.9	555.756	559.491	558.1	1
37	2	17	131	559.753	4	Aircraft2_90%_50.jpg	1	0.9	559.753	563.484	562.233	1
37	2	17	132	563.767	4	Aircraft2_90%_29.jpg	1	0.9	563.767	567.499	566.394	1
37	2	17	133	567.76	4	Aircraft1_90%_6.jpg	0	0.9	567.76	571.491	570.499	0
37	2	17	134	571.755	4	rest.jpg	n/a	n/a	571.755	575.485	575.755	n/a
37	2	17	135	575.716	4	rest.jpg	n/a	n/a	575.716	579.455	579.716	n/a
37	2	17	136	579.701	4	rest.jpg	n/a	n/a	579.701	583.43	583.701	n/a
37	2	18	137	583.69	4	Aircraft2_70%_17.jpg	1	0.75	583.69	587.424	585.109	1
37	2	18	138	587.706	4	Aircraft2_70%_11.jpg	1	0.75	587.706	591.44	589.235	1
37	2	18	139	591.722	4	Aircraft1_70%_20.jpg	0	0.75	591.722	595.457	593.633	0
37	2	18	140	595.723	4	Aircraft2_70%_47.jpg	1	0.75	595.723	599.454	597.112	1
37	2	18	141	599.739	4	Aircraft2_70%_45.jpg	1	0.75	599.739	603.47	601.507	1
37	2	18	142	603.737	4	rest.jpg	n/a	n/a	603.737	607.468	607.737	n/a
37	2	18	143	607.7	4	rest.jpg	n/a	n/a	607.7	611.434	611.7	n/a
37	2	18	144	611.679	4	rest.jpg	n/a	n/a	611.679	615.411	615.679	n/a
37	2	19	145	615.694	4	Aircraft1_10%_32.jpg	0	0.1	615.694	619.423	616.488	0
37	2	19	146	619.713	4	Aircraft1_10%_49.jpg	0	0.1	619.713	623.442	620.44	0
37	2	19	147	623.723	4	Aircraft2_10%_22.jpg	1	0.1	623.723	627.455	624.321	1
37	2	19	148	627.736	4	Aircraft1_10%_34.jpg	0	0.1	627.736	631.47	628.558	0
37	2	19	149	631.761	4	Aircraft1_10%_14.jpg	0	0.1	631.761	635.493	632.564	0
37	2	19	150	635.765	4	rest.jpg	n/a	n/a	635.765	639.5	639.765	n/a
37	2	19	151	639.75	4	rest.jpg	n/a	n/a	639.75	643.485	643.75	n/a
37	2	19	152	643.719	4	rest.jpg	n/a	n/a	643.719	647.453	647.719	n/a
37	2	20	153	647.736	4	Aircraft1_90%_1.jpg	0	0.9	647.736	651.472	649.561	0
37	2	20	154	651.757	4	Aircraft1_90%_47.jpg	0	0.9	651.757	655.492	652.999	0
37	2	20	155	655.753	4	Aircraft1_90%_40.jpg	0	0.9	655.753	659.488	657.293	0
37	2	20	156	659.772	4	Aircraft1_90%_27.jpg	0	0.9	659.772	663.501	661.553	0
37	2	20	157	663.766	4	Aircraft2_90%_35.jpg	1	0.9	663.766	667.495	665.289	1
37	2	20	158	667.781	4	rest.jpg	n/a	n/a	667.781	671.51	671.781	n/a
37	2	20	159	671.741	4	rest.jpg	n/a	n/a	671.741	675.477	675.741	n/a
37	2	20	160	675.71	4	rest.jpg	n/a	n/a	675.71	679.441	679.71	n/a
37	2	21	161	679.709	4	Aircraft2_70%_23.jpg	1	0.75	679.709	683.437	680.906	1
37	2	21	162	683.719	4	Aircraft1_70%_28.jpg	0	0.75	683.719	687.448	685.322	0
37	2	21	163	687.732	4	Aircraft2_70%_13.jpg	1	0.75	687.732	691.467	689.28	1
37	2	21	164	691.759	4	Aircraft1_70%_45.jpg	0	0.75	691.759	695.49	693.658	0
37	2	21	165	695.78	4	Aircraft1_70%_37.jpg	0	0.75	695.78	699.512	697.288	0
37	2	21	166	699.784	4	rest.jpg	n/a	n/a	699.784	703.518	703.784	n/a
37	2	21	167	703.752	4	rest.jpg	n/a	n/a	703.752	707.487	707.752	n/a
37	2	21	168	707.736	4	rest.jpg	n/a	n/a	707.736	711.47	711.736	n/a
37	2	22	169	711.762	4	Aircraft1_10%_25.jpg	0	0.1	711.762	715.497	712.696	0
37	2	22	170	715.794	4	Aircraft2_10%_49.jpg	1	0.1	715.794	719.522	716.451	1
37	2	22	171	719.797	4	Aircraft2_10%_10.jpg	1	0.1	719.797	723.532	720.694	1
37	2	22	172	723.812	4	Aircraft2_10%_12.jpg	1	0.1	723.812	727.547	724.506	1
37	2	22	173	727.818	4	Aircraft2_10%_7.jpg	1	0.1	727.818	731.553	728.56	1
37	2	22	174	731.838	4	rest.jpg	n/a	n/a	731.838	735.574	735.838	n/a
37	2	22	175	735.807	4	rest.jpg	n/a	n/a	735.807	739.539	739.807	n/a
37	2	22	176	739.773	4	rest.jpg	n/a	n/a	739.773	743.509	743.773	n/a
37	2	23	177	743.79	4	Aircraft2_90%_17.jpg	1	0.9	743.79	747.521	745.668	1
37	2	23	178	747.783	4	Aircraft2_90%_11.jpg	1	0.9	747.783	751.512	750.065	1
37	2	23	179	751.792	4	Aircraft1_90%_20.jpg	0	0.9	751.792	755.522	753.963	0
37	2	23	180	755.782	4	Aircraft2_90%_47.jpg	1	0.9	755.782	759.511	757.137	1
37	2	23	181	759.786	4	Aircraft2_90%_45.jpg	1	0.9	759.786	763.52	762.489	1
37	2	23	182	763.804	4	rest.jpg	n/a	n/a	763.804	767.533	767.804	n/a
37	2	23	183	767.782	4	rest.jpg	n/a	n/a	767.782	771.511	771.782	n/a
37	2	23	184	771.743	4	rest.jpg	n/a	n/a	771.743	775.478	775.743	n/a
37	2	24	185	775.741	4	Aircraft1_70%_38.jpg	0	0.75	775.741	779.47	776.832	0
37	2	24	186	779.744	4	Aircraft2_70%_21.jpg	1	0.75	779.744	783.475	781.344	1
37	2	24	187	783.76	4	Aircraft1_70%_16.jpg	0	0.75	783.76	787.489	785.192	0
37	2	24	188	787.761	4	Aircraft1_70%_46.jpg	0	0.75	787.761	791.491	790.358	0
37	2	24	189	791.755	4	Aircraft2_70%_40.jpg	1	0.75	791.755	795.492	792.782	1
37	2	24	190	795.772	4	rest.jpg	n/a	n/a	795.772	799.505	799.772	n/a
37	2	24	191	799.735	4	rest.jpg	n/a	n/a	799.735	803.464	803.735	n/a
37	2	24	192	803.694	4	rest.jpg	n/a	n/a	803.694	807.422	807.694	n/a
37	2	25	193	807.69	4	Aircraft1_10%_3.jpg	0	0.1	807.69	811.425	808.523	0
37	2	25	194	811.689	4	Aircraft2_10%_28.jpg	1	0.1	811.689	815.424	812.505	1
37	2	25	195	815.71	4	Aircraft1_10%_24.jpg	0	0.1	815.71	819.446	816.409	0
37	2	25	196	819.734	4	Aircraft2_10%_39.jpg	1	0.1	819.734	823.463	820.494	1
37	2	25	197	823.744	4	Aircraft2_10%_8.jpg	1	0.1	823.744	827.478	825.062	1
37	2	25	198	827.76	4	rest.jpg	n/a	n/a	827.76	831.488	831.76	n/a
37	2	25	199	831.718	4	rest.jpg	n/a	n/a	831.718	835.449	835.718	n/a
37	2	25	200	835.682	4	rest.jpg	n/a	n/a	835.682	839.417	839.682	n/a
37	2	26	201	839.695	4	Aircraft1_90%_36.jpg	0	0.9	839.695	843.424	841.484	0
37	2	26	202	843.701	4	Aircraft1_90%_35.jpg	0	0.9	843.701	847.433	845.773	0
37	2	26	203	847.712	4	Aircraft2_90%_3.jpg	1	0.9	847.712	851.441	850	1
37	2	26	204	851.706	4	Aircraft1_90%_5.jpg	0	0.9	851.706	855.436	853.859	0
37	2	26	205	855.716	4	Aircraft1_90%_48.jpg	0	0.9	855.716	859.445	857.916	0
37	2	26	206	859.709	4	rest.jpg	n/a	n/a	859.709	863.437	863.709	n/a
37	2	26	207	863.668	4	rest.jpg	n/a	n/a	863.668	867.403	867.668	n/a
37	2	26	208	867.651	4	rest.jpg	n/a	n/a	867.651	871.387	871.651	n/a
37	2	27	209	871.664	4	Aircraft2_70%_30.jpg	1	0.75	871.664	875.398	873.132	1
37	2	27	210	875.664	4	Aircraft2_70%_27.jpg	1	0.75	875.664	879.393	877.133	1
37	2	27	211	879.667	4	Aircraft2_70%_50.jpg	1	0.75	879.667	883.401	881.504	1
37	2	27	212	883.663	4	Aircraft2_70%_29.jpg	1	0.75	883.663	887.399	885.144	1
37	2	27	213	887.665	4	Aircraft1_70%_6.jpg	0	0.75	887.665	891.394	889.621	0
37	2	27	214	891.673	4	rest.jpg	n/a	n/a	891.673	895.405	895.673	n/a
37	2	27	215	895.636	4	rest.jpg	n/a	n/a	895.636	899.372	899.636	n/a
37	2	27	216	899.616	4	rest.jpg	n/a	n/a	899.616	903.345	903.616	n/a
37	2	28	217	903.611	4	Aircraft2_10%_14.jpg	1	0.1	903.611	907.345	904.47	1
37	2	28	218	907.609	4	Aircraft2_10%_5.jpg	1	0.1	907.609	911.339	908.411	1
37	2	28	219	911.608	4	Aircraft2_10%_15.jpg	1	0.1	911.608	915.342	912.479	1
37	2	28	220	915.627	4	Aircraft2_10%_19.jpg	1	0.1	915.627	919.358	916.402	1
37	2	28	221	919.627	4	Aircraft1_10%_31.jpg	0	0.1	919.627	923.362	920.478	0
37	2	28	222	923.643	4	rest.jpg	n/a	n/a	923.643	927.378	927.643	n/a
37	2	28	223	927.61	4	rest.jpg	n/a	n/a	927.61	931.341	931.61	n/a
37	2	28	224	931.589	4	rest.jpg	n/a	n/a	931.589	935.325	935.589	n/a
37	2	29	225	935.584	4	Aircraft1_90%_2.jpg	0	0.9	935.584	939.318	937.601	0
37	2	29	226	939.595	4	Aircraft1_90%_39.jpg	0	0.9	939.595	943.33	941.439	0
37	2	29	227	943.609	4	Aircraft2_90%_26.jpg	1	0.9	943.609	947.338	944.72	1
37	2	29	228	947.6	4	Aircraft1_90%_15.jpg	0	0.9	947.6	951.329	949.507	0
37	2	29	229	951.604	4	Aircraft2_90%_16.jpg	1	0.9	951.604	955.333	953.839	1
37	2	29	230	955.601	4	rest.jpg	n/a	n/a	955.601	959.336	959.601	n/a
37	2	29	231	959.581	4	rest.jpg	n/a	n/a	959.581	963.31	963.581	n/a
37	2	29	232	963.559	4	rest.jpg	n/a	n/a	963.559	967.292	967.559	n/a
37	2	30	233	967.563	4	Aircraft1_70%_1.jpg	0	0.75	967.563	971.293	969.711	0
37	2	30	234	971.564	4	Aircraft1_70%_47.jpg	0	0.75	971.564	975.299	973.884	0
37	2	30	235	975.568	4	Aircraft1_70%_40.jpg	0	0.75	975.568	979.304	977.81	0
37	2	30	236	979.587	4	Aircraft1_70%_27.jpg	0	0.75	979.587	983.323	982.352	0
37	2	30	237	983.59	4	Aircraft2_70%_35.jpg	1	0.75	983.59	987.326	984.563	1
37	2	30	238	987.592	4	rest.jpg	n/a	n/a	987.592	991.328	991.592	n/a
37	2	30	239	991.577	4	rest.jpg	n/a	n/a	991.577	995.313	995.577	n/a
37	2	30	240	995.564	4	rest.jpg	n/a	n/a	995.564	999.296	999.564	n/a
