sub	run	block	trail	oneset	duration	stim_file	stim_lable	level of occlusion	stim_started	stim_stopped	key_time	key_fix
37	1	1	1	40.008	4	Aircraft1_10%_2.jpg	0	0.1	40.008	43.745	41.913	0
37	1	1	2	44.014	4	Aircraft1_10%_39.jpg	0	0.1	44.014	47.746	45.161	0
37	1	1	3	48.057	4	Aircraft2_10%_26.jpg	1	0.1	48.057	51.788	50.411	1
37	1	1	4	52.061	4	Aircraft1_10%_15.jpg	0	0.1	52.061	55.792	54.662	0
37	1	1	5	56.078	4	Aircraft2_10%_16.jpg	1	0.1	56.078	59.814	58.752	1
37	1	1	6	60.079	4	rest.jpg	n/a	n/a	60.079	63.808	64.079	n/a
37	1	1	7	64.038	4	rest.jpg	n/a	n/a	64.038	67.775	68.038	n/a
37	1	1	8	68.009	4	rest.jpg	n/a	n/a	68.009	71.743	72.009	n/a
37	1	2	9	72.01	4	Aircraft2_90%_14.jpg	1	0.9	72.01	75.75	74.308	1
37	1	2	10	76.029	4	Aircraft2_90%_5.jpg	1	0.9	76.029	79.762	78.434	1
37	1	2	11	80.038	4	Aircraft2_90%_15.jpg	1	0.9	80.038	83.769	82.602	1
37	1	2	12	84.048	4	Aircraft2_90%_19.jpg	1	0.9	84.048	87.785	86.257	1
37	1	2	13	88.109	4	Aircraft1_90%_31.jpg	0	0.9	88.109	91.845	90.265	0
37	1	2	14	92.111	4	rest.jpg	n/a	n/a	92.111	95.847	96.111	n/a
37	1	2	15	96.097	4	rest.jpg	n/a	n/a	96.097	99.826	100.097	n/a
37	1	2	16	100.064	4	rest.jpg	n/a	n/a	100.064	103.799	104.064	n/a
37	1	3	17	104.09	4	Aircraft2_70%_4.jpg	1	0.75	104.09	107.82	106.354	1
37	1	3	18	108.087	4	Aircraft1_70%_43.jpg	0	0.75	108.087	111.817	110.348	0
37	1	3	19	112.109	4	Aircraft1_70%_9.jpg	0	0.75	112.109	115.839	114.333	0
37	1	3	20	116.117	4	Aircraft1_70%_11.jpg	0	0.75	116.117	119.847	118.023	0
37	1	3	21	120.116	4	Aircraft1_70%_50.jpg	0	0.75	120.116	123.846	121.633	0
37	1	3	22	124.113	4	rest.jpg	n/a	n/a	124.113	127.843	128.113	n/a
37	1	3	23	128.076	4	rest.jpg	n/a	n/a	128.076	131.812	132.076	n/a
37	1	3	24	132.059	4	rest.jpg	n/a	n/a	132.059	135.788	136.059	n/a
37	1	4	25	136.074	4	Aircraft1_10%_36.jpg	0	0.1	136.074	139.809	137.8	0
37	1	4	26	140.097	4	Aircraft1_10%_35.jpg	0	0.1	140.097	143.827	142.196	0
37	1	4	27	144.151	4	Aircraft2_10%_3.jpg	1	0.1	144.151	147.887	145.643	1
37	1	4	28	148.172	4	Aircraft1_10%_5.jpg	0	0.1	148.172	151.905	150.149	0
37	1	4	29	152.175	4	Aircraft1_10%_48.jpg	0	0.1	152.175	155.911	154.188	0
37	1	4	30	156.177	4	rest.jpg	n/a	n/a	156.177	159.908	160.177	n/a
37	1	4	31	160.163	4	rest.jpg	n/a	n/a	160.163	163.9	164.163	n/a
37	1	4	32	164.133	4	rest.jpg	n/a	n/a	164.133	167.863	168.133	n/a
37	1	5	33	168.128	4	Aircraft1_90%_3.jpg	0	0.9	168.128	171.862	169.857	0
37	1	5	34	172.138	4	Aircraft2_90%_28.jpg	1	0.9	172.138	175.874	174.277	1
37	1	5	35	176.137	4	Aircraft1_90%_24.jpg	0	0.9	176.137	179.872	178.232	0
37	1	5	36	180.156	4	Aircraft2_90%_39.jpg	1	0.9	180.156	183.891	182.165	1
37	1	5	37	184.195	4	Aircraft2_90%_8.jpg	1	0.9	184.195	187.925	186.044	1
37	1	5	38	188.21	4	rest.jpg	n/a	n/a	188.21	191.942	192.21	n/a
37	1	5	39	192.191	4	rest.jpg	n/a	n/a	192.191	195.92	196.191	n/a
37	1	5	40	196.154	4	rest.jpg	n/a	n/a	196.154	199.886	200.154	n/a
37	1	6	41	200.155	4	Aircraft2_70%_18.jpg	1	0.75	200.155	203.885	201.48	1
37	1	6	42	204.171	4	Aircraft1_70%_29.jpg	0	0.75	204.171	207.902	205.332	0
37	1	6	43	208.192	4	Aircraft2_70%_1.jpg	1	0.75	208.192	211.929	209.836	1
37	1	6	44	212.215	4	Aircraft1_70%_26.jpg	0	0.75	212.215	215.947	214.053	0
37	1	6	45	216.215	4	Aircraft2_70%_34.jpg	1	0.75	216.215	219.946	218.161	1
37	1	6	46	220.215	4	rest.jpg	n/a	n/a	220.215	223.947	224.215	n/a
37	1	6	47	224.18	4	rest.jpg	n/a	n/a	224.18	227.915	228.18	n/a
37	1	6	48	228.148	4	rest.jpg	n/a	n/a	228.148	231.883	232.148	n/a
37	1	7	49	232.148	4	Aircraft2_10%_17.jpg	1	0.1	232.148	235.878	233.738	1
37	1	7	50	236.147	4	Aircraft2_10%_11.jpg	1	0.1	236.147	239.884	238.223	1
37	1	7	51	240.242	4	Aircraft1_10%_20.jpg	0	0.1	240.242	243.976	242.594	0
37	1	7	52	244.257	4	Aircraft2_10%_47.jpg	1	0.1	244.257	247.989	245.927	1
37	1	7	53	248.308	4	Aircraft2_10%_45.jpg	1	0.1	248.308	252.038	250.153	1
37	1	7	54	252.302	4	rest.jpg	n/a	n/a	252.302	256.034	256.302	n/a
37	1	7	55	256.279	4	rest.jpg	n/a	n/a	256.279	260.01	260.279	n/a
37	1	7	56	260.26	4	rest.jpg	n/a	n/a	260.26	263.995	264.26	n/a
37	1	8	57	264.267	4	Aircraft1_90%_25.jpg	0	0.9	264.267	268.002	266.142	0
37	1	8	58	268.316	4	Aircraft2_90%_49.jpg	1	0.9	268.316	272.054	270.649	1
37	1	8	59	272.338	4	Aircraft2_90%_10.jpg	1	0.9	272.338	276.07	274.977	1
37	1	8	60	276.351	4	Aircraft2_90%_12.jpg	1	0.9	276.351	280.086	278.656	1
37	1	8	61	280.352	4	Aircraft2_90%_7.jpg	1	0.9	280.352	284.082	282.259	1
37	1	8	62	284.344	4	rest.jpg	n/a	n/a	284.344	288.08	288.344	n/a
37	1	8	63	288.31	4	rest.jpg	n/a	n/a	288.31	292.048	292.31	n/a
37	1	8	64	292.298	4	rest.jpg	n/a	n/a	292.298	296.028	296.298	n/a
37	1	9	65	296.306	4	Aircraft1_70%_32.jpg	0	0.75	296.306	300.042	298.061	0
37	1	9	66	300.353	4	Aircraft1_70%_49.jpg	0	0.75	300.353	304.089	302.308	0
37	1	9	67	304.366	4	Aircraft2_70%_22.jpg	1	0.75	304.366	308.096	306.585	1
37	1	9	68	308.383	4	Aircraft1_70%_34.jpg	0	0.75	308.383	312.115	309.999	0
37	1	9	69	312.4	4	Aircraft1_70%_14.jpg	0	0.75	312.4	316.132	314.515	0
37	1	9	70	316.395	4	rest.jpg	n/a	n/a	316.395	320.131	320.395	n/a
37	1	9	71	320.378	4	rest.jpg	n/a	n/a	320.378	324.116	324.378	n/a
37	1	9	72	324.347	4	rest.jpg	n/a	n/a	324.347	328.077	328.347	n/a
37	1	10	73	328.366	4	Aircraft1_10%_1.jpg	0	0.1	328.366	332.103	330.048	0
37	1	10	74	332.387	4	Aircraft1_10%_47.jpg	0	0.1	332.387	336.117	334.415	0
37	1	10	75	336.407	4	Aircraft1_10%_40.jpg	0	0.1	336.407	340.137	338.457	0
37	1	10	76	340.42	4	Aircraft1_10%_27.jpg	0	0.1	340.42	344.153	342.803	0
37	1	10	77	344.418	4	Aircraft2_10%_35.jpg	1	0.1	344.418	348.152	347.769	1
37	1	10	78	348.415	4	rest.jpg	n/a	n/a	348.415	352.151	352.415	n/a
37	1	10	79	352.396	4	rest.jpg	n/a	n/a	352.396	356.128	356.396	n/a
37	1	10	80	356.379	4	rest.jpg	n/a	n/a	356.379	360.111	360.379	n/a
37	1	11	81	360.373	4	Aircraft1_90%_32.jpg	0	0.9	360.373	364.103	361.938	0
37	1	11	82	364.382	4	Aircraft1_90%_49.jpg	0	0.9	364.382	368.112	366.257	0
37	1	11	83	368.39	4	Aircraft2_90%_22.jpg	1	0.9	368.39	372.127	370.224	1
37	1	11	84	372.389	4	Aircraft1_90%_34.jpg	0	0.9	372.389	376.124	374.601	0
37	1	11	85	376.396	4	Aircraft1_90%_14.jpg	0	0.9	376.396	380.128	378.545	0
37	1	11	86	380.41	4	rest.jpg	n/a	n/a	380.41	384.142	384.41	n/a
37	1	11	87	384.372	4	rest.jpg	n/a	n/a	384.372	388.102	388.372	n/a
37	1	11	88	388.334	4	rest.jpg	n/a	n/a	388.334	392.064	392.334	n/a
37	1	12	89	392.374	4	Aircraft2_70%_24.jpg	1	0.75	392.374	396.106	393.616	1
37	1	12	90	396.384	4	Aircraft2_70%_2.jpg	1	0.75	396.384	400.117	397.972	1
37	1	12	91	400.431	4	Aircraft2_70%_43.jpg	1	0.75	400.431	404.161	402.16	1
37	1	12	92	404.433	4	Aircraft2_70%_46.jpg	1	0.75	404.433	408.168	406.312	1
37	1	12	93	408.448	4	Aircraft1_70%_42.jpg	0	0.75	408.448	412.181	410.173	0
37	1	12	94	412.446	4	rest.jpg	n/a	n/a	412.446	416.181	416.446	n/a
37	1	12	95	416.413	4	rest.jpg	n/a	n/a	416.413	420.147	420.413	n/a
37	1	12	96	420.377	4	rest.jpg	n/a	n/a	420.377	424.107	424.377	n/a
37	1	13	97	424.375	4	Aircraft2_10%_30.jpg	1	0.1	424.375	428.11	425.937	1
37	1	13	98	428.374	4	Aircraft2_10%_27.jpg	1	0.1	428.374	432.106	429.91	1
37	1	13	99	432.395	4	Aircraft2_10%_50.jpg	1	0.1	432.395	436.13	434.239	1
37	1	13	100	436.42	4	Aircraft2_10%_29.jpg	1	0.1	436.42	440.156	438.394	1
37	1	13	101	440.447	4	Aircraft1_10%_6.jpg	0	0.1	440.447	444.177	441.813	0
37	1	13	102	444.442	4	rest.jpg	n/a	n/a	444.442	448.172	448.442	n/a
37	1	13	103	448.421	4	rest.jpg	n/a	n/a	448.421	452.156	452.421	n/a
37	1	13	104	452.405	4	rest.jpg	n/a	n/a	452.405	456.134	456.405	n/a
37	1	14	105	456.435	4	Aircraft2_90%_18.jpg	1	0.9	456.435	460.168	458.132	1
37	1	14	106	460.446	4	Aircraft1_90%_29.jpg	0	0.9	460.446	464.181	462.381	0
37	1	14	107	464.459	4	Aircraft2_90%_1.jpg	1	0.9	464.459	468.189	466.255	1
37	1	14	108	468.458	4	Aircraft1_90%_26.jpg	0	0.9	468.458	472.194	470.503	0
37	1	14	109	472.456	4	Aircraft2_90%_34.jpg	1	0.9	472.456	476.186	474.861	1
37	1	14	110	476.451	4	rest.jpg	n/a	n/a	476.451	480.181	480.451	n/a
37	1	14	111	480.43	4	rest.jpg	n/a	n/a	480.43	484.167	484.43	n/a
37	1	14	112	484.399	4	rest.jpg	n/a	n/a	484.399	488.129	488.399	n/a
37	1	15	113	488.396	4	Aircraft1_70%_17.jpg	0	0.75	488.396	492.13	489.924	0
37	1	15	114	492.408	4	Aircraft2_70%_42.jpg	1	0.75	492.408	496.145	493.714	1
37	1	15	115	496.428	4	Aircraft2_70%_44.jpg	1	0.75	496.428	500.162	497.772	1
37	1	15	116	500.447	4	Aircraft1_70%_10.jpg	0	0.75	500.447	504.179	501.855	0
37	1	15	117	504.465	4	Aircraft2_70%_25.jpg	1	0.75	504.465	508.195	506.02	1
37	1	15	118	508.459	4	rest.jpg	n/a	n/a	508.459	512.19	512.459	n/a
37	1	15	119	512.422	4	rest.jpg	n/a	n/a	512.422	516.152	516.422	n/a
37	1	15	120	516.385	4	rest.jpg	n/a	n/a	516.385	520.115	520.385	n/a
37	1	16	121	520.4	4	Aircraft1_10%_38.jpg	0	0.1	520.4	524.13	521.395	0
37	1	16	122	524.416	4	Aircraft2_10%_21.jpg	1	0.1	524.416	528.153	525.27	1
37	1	16	123	528.423	4	Aircraft1_10%_16.jpg	0	0.1	528.423	532.153	529.865	0
37	1	16	124	532.476	4	Aircraft1_10%_46.jpg	0	0.1	532.476	536.211	534.145	0
37	1	16	125	536.495	4	Aircraft2_10%_40.jpg	1	0.1	536.495	540.226	537.852	1
37	1	16	126	540.509	4	rest.jpg	n/a	n/a	540.509	544.246	544.509	n/a
37	1	16	127	544.478	4	rest.jpg	n/a	n/a	544.478	548.211	548.478	n/a
37	1	16	128	548.46	4	rest.jpg	n/a	n/a	548.46	552.191	552.46	n/a
37	1	17	129	552.467	4	Aircraft2_90%_4.jpg	1	0.9	552.467	556.202	554.219	1
37	1	17	130	556.481	4	Aircraft1_90%_43.jpg	0	0.9	556.481	560.212	558.251	0
37	1	17	131	560.494	4	Aircraft1_90%_9.jpg	0	0.9	560.494	564.224	562.576	0
37	1	17	132	564.486	4	Aircraft1_90%_11.jpg	0	0.9	564.486	568.218	566.647	0
37	1	17	133	568.496	4	Aircraft1_90%_50.jpg	0	0.9	568.496	572.227	570.207	0
37	1	17	134	572.491	4	rest.jpg	n/a	n/a	572.491	576.223	576.491	n/a
37	1	17	135	576.466	4	rest.jpg	n/a	n/a	576.466	580.196	580.466	n/a
37	1	17	136	580.446	4	rest.jpg	n/a	n/a	580.446	584.176	584.446	n/a
37	1	18	137	584.443	4	Aircraft1_70%_12.jpg	0	0.75	584.443	588.175	585.844	0
37	1	18	138	588.446	4	Aircraft2_70%_32.jpg	1	0.75	588.446	592.177	590.357	1
37	1	18	139	592.479	4	Aircraft2_70%_48.jpg	1	0.75	592.479	596.211	594.213	1
37	1	18	140	596.477	4	Aircraft1_70%_19.jpg	0	0.75	596.477	600.214	597.988	0
37	1	18	141	600.487	4	Aircraft1_70%_33.jpg	0	0.75	600.487	604.222	601.778	0
37	1	18	142	604.509	4	rest.jpg	n/a	n/a	604.509	608.241	608.509	n/a
37	1	18	143	608.489	4	rest.jpg	n/a	n/a	608.489	612.219	612.489	n/a
37	1	18	144	612.463	4	rest.jpg	n/a	n/a	612.463	616.193	616.463	n/a
37	1	19	145	616.462	4	Aircraft2_10%_23.jpg	1	0.1	616.462	620.197	617.638	1
37	1	19	146	620.477	4	Aircraft1_10%_28.jpg	0	0.1	620.477	624.214	621.739	0
37	1	19	147	624.498	4	Aircraft2_10%_13.jpg	1	0.1	624.498	628.23	625.572	1
37	1	19	148	628.495	4	Aircraft1_10%_45.jpg	0	0.1	628.495	632.225	629.556	0
37	1	19	149	632.492	4	Aircraft1_10%_37.jpg	0	0.1	632.492	636.228	634.35	0
37	1	19	150	636.493	4	rest.jpg	n/a	n/a	636.493	640.223	640.493	n/a
37	1	19	151	640.453	4	rest.jpg	n/a	n/a	640.453	644.186	644.453	n/a
37	1	19	152	644.433	4	rest.jpg	n/a	n/a	644.433	648.171	648.433	n/a
37	1	20	153	648.454	4	Aircraft2_90%_33.jpg	1	0.9	648.454	652.186	650.043	1
37	1	20	154	652.448	4	Aircraft2_90%_38.jpg	1	0.9	652.448	656.178	654.271	1
37	1	20	155	656.439	4	Aircraft1_90%_30.jpg	0	0.9	656.439	660.172	658.472	0
37	1	20	156	660.451	4	Aircraft1_90%_41.jpg	0	0.9	660.451	664.188	662.054	0
37	1	20	157	664.45	4	Aircraft1_90%_18.jpg	0	0.9	664.45	668.181	665.863	0
37	1	20	158	668.462	4	rest.jpg	n/a	n/a	668.462	672.192	672.462	n/a
37	1	20	159	672.423	4	rest.jpg	n/a	n/a	672.423	676.153	676.423	n/a
37	1	20	160	676.403	4	rest.jpg	n/a	n/a	676.403	680.14	680.403	n/a
37	1	21	161	680.45	4	Aircraft2_70%_9.jpg	1	0.75	680.45	684.18	682.207	1
37	1	21	162	684.46	4	Aircraft2_70%_6.jpg	1	0.75	684.46	688.19	686.124	1
37	1	21	163	688.482	4	Aircraft1_70%_23.jpg	0	0.75	688.482	692.214	690.778	0
37	1	21	164	692.482	4	Aircraft1_70%_21.jpg	0	0.75	692.482	696.212	694.84	0
37	1	21	165	696.526	4	Aircraft2_70%_36.jpg	1	0.75	696.526	700.258	697.705	1
37	1	21	166	700.538	4	rest.jpg	n/a	n/a	700.538	704.269	704.538	n/a
37	1	21	167	704.499	4	rest.jpg	n/a	n/a	704.499	708.232	708.499	n/a
37	1	21	168	708.467	4	rest.jpg	n/a	n/a	708.467	712.202	712.467	n/a
37	1	22	169	712.469	4	Aircraft2_10%_41.jpg	1	0.1	712.469	716.199	713.858	1
37	1	22	170	716.488	4	Aircraft1_10%_22.jpg	0	0.1	716.488	720.218	717.368	0
37	1	22	171	720.525	4	Aircraft1_10%_44.jpg	0	0.1	720.525	724.26	721.867	0
37	1	22	172	724.529	4	Aircraft1_10%_1.jpg	0	0.1	724.529	728.264	725.89	0
37	1	22	173	728.549	4	Aircraft2_10%_37.jpg	1	0.1	728.549	732.285	729.753	1
37	1	22	174	732.567	4	rest.jpg	n/a	n/a	732.567	736.302	736.567	n/a
37	1	22	175	736.551	4	rest.jpg	n/a	n/a	736.551	740.28	740.551	n/a
37	1	22	176	740.509	4	rest.jpg	n/a	n/a	740.509	744.245	744.509	n/a
37	1	23	177	744.523	4	Aircraft2_90%_31.jpg	1	0.9	744.523	748.253	745.854	1
37	1	23	178	748.532	4	Aircraft1_90%_4.jpg	0	0.9	748.532	752.262	750.371	0
37	1	23	179	752.582	4	Aircraft2_90%_20.jpg	1	0.9	752.582	756.314	754.168	1
37	1	23	180	756.607	4	Aircraft1_90%_7.jpg	0	0.9	756.607	760.343	758.403	0
37	1	23	181	760.627	4	Aircraft1_90%_8.jpg	0	0.9	760.627	764.36	762.518	0
37	1	23	182	764.625	4	rest.jpg	n/a	n/a	764.625	768.355	768.625	n/a
37	1	23	183	768.59	4	rest.jpg	n/a	n/a	768.59	772.325	772.59	n/a
37	1	23	184	772.556	4	rest.jpg	n/a	n/a	772.556	776.286	776.556	n/a
37	1	24	185	776.566	4	Aircraft2_70%_14.jpg	1	0.75	776.566	780.305	777.897	1
37	1	24	186	780.583	4	Aircraft2_70%_5.jpg	1	0.75	780.583	784.32	782.705	1
37	1	24	187	784.585	4	Aircraft2_70%_15.jpg	1	0.75	784.585	788.315	786.387	1
37	1	24	188	788.604	4	Aircraft2_70%_19.jpg	1	0.75	788.604	792.34	789.928	1
37	1	24	189	792.627	4	Aircraft1_70%_31.jpg	0	0.75	792.627	796.357	794.726	0
37	1	24	190	796.622	4	rest.jpg	n/a	n/a	796.622	800.357	800.622	n/a
37	1	24	191	800.606	4	rest.jpg	n/a	n/a	800.606	804.339	804.606	n/a
37	1	24	192	804.571	4	rest.jpg	n/a	n/a	804.571	808.307	808.571	n/a
37	1	25	193	808.595	4	Aircraft2_10%_9.jpg	1	0.1	808.595	812.327	809.823	1
37	1	25	194	812.606	4	Aircraft2_10%_6.jpg	1	0.1	812.606	816.339	814.488	1
37	1	25	195	816.617	4	Aircraft1_10%_23.jpg	0	0.1	816.617	820.347	818.15	0
37	1	25	196	820.615	4	Aircraft1_10%_21.jpg	0	0.1	820.615	824.351	822.46	0
37	1	25	197	824.615	4	Aircraft2_10%_36.jpg	1	0.1	824.615	828.35	825.829	1
37	1	25	198	828.615	4	rest.jpg	n/a	n/a	828.615	832.348	832.615	n/a
37	1	25	199	832.594	4	rest.jpg	n/a	n/a	832.594	836.324	836.594	n/a
37	1	25	200	836.572	4	rest.jpg	n/a	n/a	836.572	840.304	840.572	n/a
37	1	26	201	840.566	4	Aircraft2_90%_24.jpg	1	0.9	840.566	844.295	842.65	1
37	1	26	202	844.568	4	Aircraft2_90%_2.jpg	1	0.9	844.568	848.3	845.778	1
37	1	26	203	848.56	4	Aircraft2_90%_43.jpg	1	0.9	848.56	852.29	850.438	1
37	1	26	204	852.569	4	Aircraft2_90%_46.jpg	1	0.9	852.569	856.299	854.286	1
37	1	26	205	856.56	4	Aircraft1_90%_42.jpg	0	0.9	856.56	860.296	858.384	0
37	1	26	206	860.561	4	rest.jpg	n/a	n/a	860.561	864.297	864.561	n/a
37	1	26	207	864.542	4	rest.jpg	n/a	n/a	864.542	868.274	868.542	n/a
37	1	26	208	868.506	4	rest.jpg	n/a	n/a	868.506	872.241	872.506	n/a
37	1	27	209	872.526	4	Aircraft1_70%_3.jpg	0	0.75	872.526	876.256	874.054	0
37	1	27	210	876.542	4	Aircraft2_70%_28.jpg	1	0.75	876.542	880.274	878.445	1
37	1	27	211	880.56	4	Aircraft1_70%_24.jpg	0	0.75	880.56	884.29	881.924	0
37	1	27	212	884.574	4	Aircraft2_70%_39.jpg	1	0.75	884.574	888.304	886.231	1
37	1	27	213	888.592	4	Aircraft2_70%_8.jpg	1	0.75	888.592	892.329	890.279	1
37	1	27	214	892.614	4	rest.jpg	n/a	n/a	892.614	896.346	896.614	n/a
37	1	27	215	896.594	4	rest.jpg	n/a	n/a	896.594	900.326	900.594	n/a
37	1	27	216	900.572	4	rest.jpg	n/a	n/a	900.572	904.304	904.572	n/a
37	1	28	217	904.569	4	Aircraft1_10%_12.jpg	0	0.1	904.569	908.301	905.803	0
37	1	28	218	908.57	4	Aircraft2_10%_32.jpg	1	0.1	908.57	912.307	909.621	1
37	1	28	219	912.575	4	Aircraft2_10%_48.jpg	1	0.1	912.575	916.309	914.032	1
37	1	28	220	916.588	4	Aircraft1_10%_19.jpg	0	0.1	916.588	920.325	918.033	0
37	1	28	221	920.588	4	Aircraft1_10%_33.jpg	0	0.1	920.588	924.325	921.902	0
37	1	28	222	924.604	4	rest.jpg	n/a	n/a	924.604	928.336	928.604	n/a
37	1	28	223	928.586	4	rest.jpg	n/a	n/a	928.586	932.318	932.586	n/a
37	1	28	224	932.567	4	rest.jpg	n/a	n/a	932.567	936.297	936.567	n/a
37	1	29	225	936.559	4	Aircraft1_90%_17.jpg	0	0.9	936.559	940.294	937.851	0
37	1	29	226	940.595	4	Aircraft2_90%_42.jpg	1	0.9	940.595	944.331	942.486	1
37	1	29	227	944.642	4	Aircraft2_90%_44.jpg	1	0.9	944.642	948.372	945.953	1
37	1	29	228	948.643	4	Aircraft1_90%_10.jpg	0	0.9	948.643	952.377	950.75	0
37	1	29	229	952.654	4	Aircraft2_90%_25.jpg	1	0.9	952.654	956.389	953.957	1
37	1	29	230	956.652	4	rest.jpg	n/a	n/a	956.652	960.382	960.652	n/a
37	1	29	231	960.628	4	rest.jpg	n/a	n/a	960.628	964.36	964.628	n/a
37	1	29	232	964.608	4	rest.jpg	n/a	n/a	964.608	968.345	968.608	n/a
37	1	30	233	968.65	4	Aircraft1_70%_25.jpg	0	0.75	968.65	972.385	969.739	0
37	1	30	234	972.662	4	Aircraft2_70%_49.jpg	1	0.75	972.662	976.397	973.858	1
37	1	30	235	976.711	4	Aircraft2_70%_10.jpg	1	0.75	976.711	980.441	978.345	1
37	1	30	236	980.764	4	Aircraft2_70%_12.jpg	1	0.75	980.764	984.5	982.81	1
37	1	30	237	984.814	4	Aircraft2_70%_7.jpg	1	0.75	984.814	988.543	986.768	1
37	1	30	238	988.805	4	rest.jpg	n/a	n/a	988.805	992.542	992.805	n/a
37	1	30	239	992.788	4	rest.jpg	n/a	n/a	992.788	996.525	996.788	n/a
37	1	30	240	996.757	4	rest.jpg	n/a	n/a	996.757	1000.493	1000.757	n/a
