sub	run	block	trail	oneset	duration	stim_file	stim_lable	level of occlusion	stim_started	stim_stopped	key_time	key_fix
36	1	1	1	39.997	4	Aircraft1_10%_2.jpg	0	0.1	39.997	43.733	43.997	0
36	1	1	2	44.01	4	Aircraft1_10%_39.jpg	0	0.1	44.01	47.741	46.899	0
36	1	1	3	48.023	4	Aircraft2_10%_26.jpg	1	0.1	48.023	51.754	50.735	1
36	1	1	4	52.022	4	Aircraft1_10%_15.jpg	0	0.1	52.022	55.753	56.022	0
36	1	1	5	56.04	4	Aircraft2_10%_16.jpg	1	0.1	56.04	59.773	56.138	1
36	1	1	6	60.06	4	rest.jpg	n/a	n/a	60.06	63.797	64.06	n/a
36	1	1	7	64.028	4	rest.jpg	n/a	n/a	64.028	67.765	68.028	n/a
36	1	1	8	68.02	4	rest.jpg	n/a	n/a	68.02	71.751	72.02	n/a
36	1	2	9	72.033	4	Aircraft2_90%_14.jpg	1	0.9	72.033	75.766	76.033	1
36	1	2	10	76.083	4	Aircraft2_90%_5.jpg	1	0.9	76.083	79.819	78.879	1
36	1	2	11	80.095	4	Aircraft2_90%_15.jpg	1	0.9	80.095	83.83	83.441	1
36	1	2	12	84.125	4	Aircraft2_90%_19.jpg	1	0.9	84.125	87.857	88.125	1
36	1	2	13	88.12	4	Aircraft1_90%_31.jpg	0	0.9	88.12	91.85	89.879	0
36	1	2	14	92.131	4	rest.jpg	n/a	n/a	92.131	95.863	96.131	n/a
36	1	2	15	96.098	4	rest.jpg	n/a	n/a	96.098	99.834	100.098	n/a
36	1	2	16	100.089	4	rest.jpg	n/a	n/a	100.089	103.819	104.089	n/a
36	1	3	17	104.118	4	Aircraft2_70%_4.jpg	1	0.75	104.118	107.85	106.442	1
36	1	3	18	108.18	4	Aircraft1_70%_43.jpg	0	0.75	108.18	111.911	110.22	0
36	1	3	19	112.248	4	Aircraft1_70%_9.jpg	0	0.75	112.248	115.983	115.804	0
36	1	3	20	116.257	4	Aircraft1_70%_11.jpg	0	0.75	116.257	119.987	119.083	0
36	1	3	21	120.276	4	Aircraft1_70%_50.jpg	0	0.75	120.276	124.006	123.356	0
36	1	3	22	124.289	4	rest.jpg	n/a	n/a	124.289	128.025	128.289	n/a
36	1	3	23	128.259	4	rest.jpg	n/a	n/a	128.259	131.994	132.259	n/a
36	1	3	24	132.226	4	rest.jpg	n/a	n/a	132.226	135.957	136.226	n/a
36	1	4	25	136.25	4	Aircraft1_10%_36.jpg	0	0.1	136.25	139.98	139.432	0
36	1	4	26	140.265	4	Aircraft1_10%_35.jpg	0	0.1	140.265	143.998	144.265	0
36	1	4	27	144.265	4	Aircraft2_10%_3.jpg	1	0.1	144.265	147.997	146.786	1
36	1	4	28	148.267	4	Aircraft1_10%_5.jpg	0	0.1	148.267	151.999	151.276	0
36	1	4	29	152.296	4	Aircraft1_10%_48.jpg	0	0.1	152.296	156.032	156.296	0
36	1	4	30	156.294	4	rest.jpg	n/a	n/a	156.294	160.031	160.294	n/a
36	1	4	31	160.262	4	rest.jpg	n/a	n/a	160.262	163.992	164.262	n/a
36	1	4	32	164.226	4	rest.jpg	n/a	n/a	164.226	167.962	168.226	n/a
36	1	5	33	168.227	4	Aircraft1_90%_3.jpg	0	0.9	168.227	171.962	171.152	0
36	1	5	34	172.227	4	Aircraft2_90%_28.jpg	1	0.9	172.227	175.957	175.431	1
36	1	5	35	176.241	4	Aircraft1_90%_24.jpg	0	0.9	176.241	179.977	179.494	0
36	1	5	36	180.26	4	Aircraft2_90%_39.jpg	1	0.9	180.26	183.993	184.26	1
36	1	5	37	184.277	4	Aircraft2_90%_8.jpg	1	0.9	184.277	188.013	187.858	1
36	1	5	38	188.294	4	rest.jpg	n/a	n/a	188.294	192.024	192.294	n/a
36	1	5	39	192.253	4	rest.jpg	n/a	n/a	192.253	195.983	196.253	n/a
36	1	5	40	196.215	4	rest.jpg	n/a	n/a	196.215	199.951	200.215	n/a
36	1	6	41	200.241	4	Aircraft2_70%_18.jpg	1	0.75	200.241	203.978	202.381	1
36	1	6	42	204.246	4	Aircraft1_70%_29.jpg	0	0.75	204.246	207.977	206.928	0
36	1	6	43	208.249	4	Aircraft2_70%_1.jpg	1	0.75	208.249	211.979	212.249	1
36	1	6	44	212.266	4	Aircraft1_70%_26.jpg	0	0.75	212.266	216.001	216.266	0
36	1	6	45	216.289	4	Aircraft2_70%_34.jpg	1	0.75	216.289	220.021	216.317	1
36	1	6	46	220.304	4	rest.jpg	n/a	n/a	220.304	224.036	224.304	n/a
36	1	6	47	224.266	4	rest.jpg	n/a	n/a	224.266	227.998	228.266	n/a
36	1	6	48	228.247	4	rest.jpg	n/a	n/a	228.247	231.983	232.247	n/a
36	1	7	49	232.248	4	Aircraft2_10%_17.jpg	1	0.1	232.248	235.98	235.535	1
36	1	7	50	236.249	4	Aircraft2_10%_11.jpg	1	0.1	236.249	239.979	238.111	1
36	1	7	51	240.258	4	Aircraft1_10%_20.jpg	0	0.1	240.258	243.989	243.01	0
36	1	7	52	244.277	4	Aircraft2_10%_47.jpg	1	0.1	244.277	248.016	245.385	1
36	1	7	53	248.298	4	Aircraft2_10%_45.jpg	1	0.1	248.298	252.028	249.952	1
36	1	7	54	252.31	4	rest.jpg	n/a	n/a	252.31	256.044	256.31	n/a
36	1	7	55	256.276	4	rest.jpg	n/a	n/a	256.276	260.005	260.276	n/a
36	1	7	56	260.238	4	rest.jpg	n/a	n/a	260.238	263.97	264.238	n/a
36	1	8	57	264.234	4	Aircraft1_90%_25.jpg	0	0.9	264.234	267.964	267.284	0
36	1	8	58	268.244	4	Aircraft2_90%_49.jpg	1	0.9	268.244	271.98	271.356	1
36	1	8	59	272.243	4	Aircraft2_90%_10.jpg	1	0.9	272.243	275.973	275.38	1
36	1	8	60	276.235	4	Aircraft2_90%_12.jpg	1	0.9	276.235	279.966	278.125	1
36	1	8	61	280.247	4	Aircraft2_90%_7.jpg	1	0.9	280.247	283.983	282.182	1
36	1	8	62	284.265	4	rest.jpg	n/a	n/a	284.265	288	288.265	n/a
36	1	8	63	288.233	4	rest.jpg	n/a	n/a	288.233	291.962	292.233	n/a
36	1	8	64	292.213	4	rest.jpg	n/a	n/a	292.213	295.947	296.213	n/a
36	1	9	65	296.212	4	Aircraft1_70%_32.jpg	0	0.75	296.212	299.95	299.586	0
36	1	9	66	300.23	4	Aircraft1_70%_49.jpg	0	0.75	300.23	303.965	302.474	0
36	1	9	67	304.247	4	Aircraft2_70%_22.jpg	1	0.75	304.247	307.979	307.29	1
36	1	9	68	308.267	4	Aircraft1_70%_34.jpg	0	0.75	308.267	311.997	311.678	0
36	1	9	69	312.267	4	Aircraft1_70%_14.jpg	0	0.75	312.267	316	314.625	0
36	1	9	70	316.279	4	rest.jpg	n/a	n/a	316.279	320.009	320.279	n/a
36	1	9	71	320.243	4	rest.jpg	n/a	n/a	320.243	323.973	324.243	n/a
36	1	9	72	324.206	4	rest.jpg	n/a	n/a	324.206	327.941	328.206	n/a
36	1	10	73	328.226	4	Aircraft1_10%_1.jpg	0	0.1	328.226	331.955	330.322	0
36	1	10	74	332.237	4	Aircraft1_10%_47.jpg	0	0.1	332.237	335.967	336.237	0
36	1	10	75	336.257	4	Aircraft1_10%_40.jpg	0	0.1	336.257	339.992	339.847	0
36	1	10	76	340.279	4	Aircraft1_10%_27.jpg	0	0.1	340.279	344.011	344.279	0
36	1	10	77	344.296	4	Aircraft2_10%_35.jpg	1	0.1	344.296	348.026	345.697	1
36	1	10	78	348.29	4	rest.jpg	n/a	n/a	348.29	352.02	352.29	n/a
36	1	10	79	352.252	4	rest.jpg	n/a	n/a	352.252	355.984	356.252	n/a
36	1	10	80	356.217	4	rest.jpg	n/a	n/a	356.217	359.949	360.217	n/a
36	1	11	81	360.21	4	Aircraft1_90%_32.jpg	0	0.9	360.21	363.94	362.294	0
36	1	11	82	364.216	4	Aircraft1_90%_49.jpg	0	0.9	364.216	367.945	367.226	0
36	1	11	83	368.205	4	Aircraft2_90%_22.jpg	1	0.9	368.205	371.936	371.638	1
36	1	11	84	372.197	4	Aircraft1_90%_34.jpg	0	0.9	372.197	375.927	375.023	0
36	1	11	85	376.215	4	Aircraft1_90%_14.jpg	0	0.9	376.215	379.946	380.215	0
36	1	11	86	380.211	4	rest.jpg	n/a	n/a	380.211	383.945	384.211	n/a
36	1	11	87	384.193	4	rest.jpg	n/a	n/a	384.193	387.923	388.193	n/a
36	1	11	88	388.174	4	rest.jpg	n/a	n/a	388.174	391.904	392.174	n/a
36	1	12	89	392.167	4	Aircraft2_70%_24.jpg	1	0.75	392.167	395.9	394.825	1
36	1	12	90	396.182	4	Aircraft2_70%_2.jpg	1	0.75	396.182	399.914	400.182	1
36	1	12	91	400.198	4	Aircraft2_70%_43.jpg	1	0.75	400.198	403.932	402.341	1
36	1	12	92	404.197	4	Aircraft2_70%_46.jpg	1	0.75	404.197	407.929	407.645	1
36	1	12	93	408.217	4	Aircraft1_70%_42.jpg	0	0.75	408.217	411.947	409.574	0
36	1	12	94	412.23	4	rest.jpg	n/a	n/a	412.23	415.966	416.23	n/a
36	1	12	95	416.216	4	rest.jpg	n/a	n/a	416.216	419.945	420.216	n/a
36	1	12	96	420.177	4	rest.jpg	n/a	n/a	420.177	423.907	424.177	n/a
36	1	13	97	424.192	4	Aircraft2_10%_30.jpg	1	0.1	424.192	427.928	426.319	1
36	1	13	98	428.193	4	Aircraft2_10%_27.jpg	1	0.1	428.193	431.929	430.187	1
36	1	13	99	432.221	4	Aircraft2_10%_50.jpg	1	0.1	432.221	435.951	434.469	1
36	1	13	100	436.224	4	Aircraft2_10%_29.jpg	1	0.1	436.224	439.956	440.224	1
36	1	13	101	440.244	4	Aircraft1_10%_6.jpg	0	0.1	440.244	443.979	442.983	0
36	1	13	102	444.258	4	rest.jpg	n/a	n/a	444.258	447.988	448.258	n/a
36	1	13	103	448.24	4	rest.jpg	n/a	n/a	448.24	451.97	452.24	n/a
36	1	13	104	452.221	4	rest.jpg	n/a	n/a	452.221	455.954	456.221	n/a
36	1	14	105	456.216	4	Aircraft2_90%_18.jpg	1	0.9	456.216	459.952	458.605	1
36	1	14	106	460.215	4	Aircraft1_90%_29.jpg	0	0.9	460.215	463.947	461.842	0
36	1	14	107	464.233	4	Aircraft2_90%_1.jpg	1	0.9	464.233	467.966	466.256	1
36	1	14	108	468.229	4	Aircraft1_90%_26.jpg	0	0.9	468.229	471.969	471.494	0
36	1	14	109	472.232	4	Aircraft2_90%_34.jpg	1	0.9	472.232	475.961	474.93	1
36	1	14	110	476.237	4	rest.jpg	n/a	n/a	476.237	479.974	480.237	n/a
36	1	14	111	480.207	4	rest.jpg	n/a	n/a	480.207	483.937	484.207	n/a
36	1	14	112	484.184	4	rest.jpg	n/a	n/a	484.184	487.914	488.184	n/a
36	1	15	113	488.206	4	Aircraft1_70%_17.jpg	0	0.75	488.206	491.939	491.412	0
36	1	15	114	492.224	4	Aircraft2_70%_42.jpg	1	0.75	492.224	495.959	494.707	1
36	1	15	115	496.23	4	Aircraft2_70%_44.jpg	1	0.75	496.23	499.961	497.395	1
36	1	15	116	500.228	4	Aircraft1_70%_10.jpg	0	0.75	500.228	503.958	503.609	0
36	1	15	117	504.248	4	Aircraft2_70%_25.jpg	1	0.75	504.248	507.978	506.755	1
36	1	15	118	508.244	4	rest.jpg	n/a	n/a	508.244	511.973	512.244	n/a
36	1	15	119	512.222	4	rest.jpg	n/a	n/a	512.222	515.959	516.222	n/a
36	1	15	120	516.19	4	rest.jpg	n/a	n/a	516.19	519.926	520.19	n/a
36	1	16	121	520.193	4	Aircraft1_10%_38.jpg	0	0.1	520.193	523.925	522.366	0
36	1	16	122	524.195	4	Aircraft2_10%_21.jpg	1	0.1	524.195	527.925	526.527	1
36	1	16	123	528.216	4	Aircraft1_10%_16.jpg	0	0.1	528.216	531.948	529.518	0
36	1	16	124	532.236	4	Aircraft1_10%_46.jpg	0	0.1	532.236	535.968	533.789	0
36	1	16	125	536.233	4	Aircraft2_10%_40.jpg	1	0.1	536.233	539.969	537.953	1
36	1	16	126	540.252	4	rest.jpg	n/a	n/a	540.252	543.989	544.252	n/a
36	1	16	127	544.238	4	rest.jpg	n/a	n/a	544.238	547.968	548.238	n/a
36	1	16	128	548.217	4	rest.jpg	n/a	n/a	548.217	551.947	552.217	n/a
36	1	17	129	552.223	4	Aircraft2_90%_4.jpg	1	0.9	552.223	555.958	554.959	1
36	1	17	130	556.218	4	Aircraft1_90%_43.jpg	0	0.9	556.218	559.954	558.673	0
36	1	17	131	560.232	4	Aircraft1_90%_9.jpg	0	0.9	560.232	563.962	563.737	0
36	1	17	132	564.283	4	Aircraft1_90%_11.jpg	0	0.9	564.283	568.019	567.61	0
36	1	17	133	568.28	4	Aircraft1_90%_50.jpg	0	0.9	568.28	572.013	571.547	0
36	1	17	134	572.278	4	rest.jpg	n/a	n/a	572.278	576.013	576.278	n/a
36	1	17	135	576.262	4	rest.jpg	n/a	n/a	576.262	579.994	580.262	n/a
36	1	17	136	580.227	4	rest.jpg	n/a	n/a	580.227	583.957	584.227	n/a
36	1	18	137	584.238	4	Aircraft1_70%_12.jpg	0	0.75	584.238	587.974	586.666	0
36	1	18	138	588.241	4	Aircraft2_70%_32.jpg	1	0.75	588.241	591.979	590.885	1
36	1	18	139	592.262	4	Aircraft2_70%_48.jpg	1	0.75	592.262	595.998	595.215	1
36	1	18	140	596.267	4	Aircraft1_70%_19.jpg	0	0.75	596.267	599.997	597.414	0
36	1	18	141	600.284	4	Aircraft1_70%_33.jpg	0	0.75	600.284	604.016	602.322	0
36	1	18	142	604.28	4	rest.jpg	n/a	n/a	604.28	608.015	608.28	n/a
36	1	18	143	608.247	4	rest.jpg	n/a	n/a	608.247	611.977	612.247	n/a
36	1	18	144	612.221	4	rest.jpg	n/a	n/a	612.221	615.958	616.221	n/a
36	1	19	145	616.28	4	Aircraft2_10%_23.jpg	1	0.1	616.28	620.012	618.516	1
36	1	19	146	620.275	4	Aircraft1_10%_28.jpg	0	0.1	620.275	624.005	622.401	0
36	1	19	147	624.29	4	Aircraft2_10%_13.jpg	1	0.1	624.29	628.02	626.507	1
36	1	19	148	628.305	4	Aircraft1_10%_45.jpg	0	0.1	628.305	632.035	631.805	0
36	1	19	149	632.323	4	Aircraft1_10%_37.jpg	0	0.1	632.323	636.055	635.265	0
36	1	19	150	636.338	4	rest.jpg	n/a	n/a	636.338	640.069	640.338	n/a
36	1	19	151	640.301	4	rest.jpg	n/a	n/a	640.301	644.038	644.301	n/a
36	1	19	152	644.285	4	rest.jpg	n/a	n/a	644.285	648.02	648.285	n/a
36	1	20	153	648.282	4	Aircraft2_90%_33.jpg	1	0.9	648.282	652.012	650.871	1
36	1	20	154	652.292	4	Aircraft2_90%_38.jpg	1	0.9	652.292	656.021	654.904	1
36	1	20	155	656.3	4	Aircraft1_90%_30.jpg	0	0.9	656.3	660.03	659.386	0
36	1	20	156	660.306	4	Aircraft1_90%_41.jpg	0	0.9	660.306	664.036	662.615	0
36	1	20	157	664.333	4	Aircraft1_90%_18.jpg	0	0.9	664.333	668.069	666.227	0
36	1	20	158	668.334	4	rest.jpg	n/a	n/a	668.334	672.07	672.334	n/a
36	1	20	159	672.301	4	rest.jpg	n/a	n/a	672.301	676.037	676.301	n/a
36	1	20	160	676.292	4	rest.jpg	n/a	n/a	676.292	680.022	680.292	n/a
36	1	21	161	680.289	4	Aircraft2_70%_9.jpg	1	0.75	680.289	684.019	683.704	1
36	1	21	162	684.289	4	Aircraft2_70%_6.jpg	1	0.75	684.289	688.023	686.611	1
36	1	21	163	688.305	4	Aircraft1_70%_23.jpg	0	0.75	688.305	692.04	691.147	0
36	1	21	164	692.322	4	Aircraft1_70%_21.jpg	0	0.75	692.322	696.057	694.16	0
36	1	21	165	696.321	4	Aircraft2_70%_36.jpg	1	0.75	696.321	700.057	698.025	1
36	1	21	166	700.34	4	rest.jpg	n/a	n/a	700.34	704.076	704.34	n/a
36	1	21	167	704.308	4	rest.jpg	n/a	n/a	704.308	708.041	708.308	n/a
36	1	21	168	708.292	4	rest.jpg	n/a	n/a	708.292	712.027	712.292	n/a
36	1	22	169	712.309	4	Aircraft2_10%_41.jpg	1	0.1	712.309	716.04	714.185	1
36	1	22	170	716.308	4	Aircraft1_10%_22.jpg	0	0.1	716.308	720.038	718.342	0
36	1	22	171	720.303	4	Aircraft1_10%_44.jpg	0	0.1	720.303	724.033	722.603	0
36	1	22	172	724.301	4	Aircraft1_10%_1.jpg	0	0.1	724.301	728.03	726.723	0
36	1	22	173	728.292	4	Aircraft2_10%_37.jpg	1	0.1	728.292	732.022	730.709	1
36	1	22	174	732.302	4	rest.jpg	n/a	n/a	732.302	736.037	736.302	n/a
36	1	22	175	736.284	4	rest.jpg	n/a	n/a	736.284	740.014	740.284	n/a
36	1	22	176	740.257	4	rest.jpg	n/a	n/a	740.257	743.993	744.257	n/a
36	1	23	177	744.256	4	Aircraft2_90%_31.jpg	1	0.9	744.256	747.991	747.176	1
36	1	23	178	748.254	4	Aircraft1_90%_4.jpg	0	0.9	748.254	751.991	750.876	0
36	1	23	179	752.277	4	Aircraft2_90%_20.jpg	1	0.9	752.277	756.013	754.722	1
36	1	23	180	756.275	4	Aircraft1_90%_7.jpg	0	0.9	756.275	760.007	759.688	0
36	1	23	181	760.29	4	Aircraft1_90%_8.jpg	0	0.9	760.29	764.025	763.522	0
36	1	23	182	764.309	4	rest.jpg	n/a	n/a	764.309	768.04	768.309	n/a
36	1	23	183	768.271	4	rest.jpg	n/a	n/a	768.271	772.003	772.271	n/a
36	1	23	184	772.238	4	rest.jpg	n/a	n/a	772.238	775.97	776.238	n/a
36	1	24	185	776.239	4	Aircraft2_70%_14.jpg	1	0.75	776.239	779.974	778.925	1
36	1	24	186	780.242	4	Aircraft2_70%_5.jpg	1	0.75	780.242	783.972	782.774	1
36	1	24	187	784.24	4	Aircraft2_70%_15.jpg	1	0.75	784.24	787.97	787.318	1
36	1	24	188	788.234	4	Aircraft2_70%_19.jpg	1	0.75	788.234	791.97	791.436	1
36	1	24	189	792.254	4	Aircraft1_70%_31.jpg	0	0.75	792.254	795.987	793.769	0
36	1	24	190	796.268	4	rest.jpg	n/a	n/a	796.268	799.997	800.268	n/a
36	1	24	191	800.25	4	rest.jpg	n/a	n/a	800.25	803.98	804.25	n/a
36	1	24	192	804.227	4	rest.jpg	n/a	n/a	804.227	807.961	808.227	n/a
36	1	25	193	808.244	4	Aircraft2_10%_9.jpg	1	0.1	808.244	811.98	810.464	1
36	1	25	194	812.254	4	Aircraft2_10%_6.jpg	1	0.1	812.254	815.986	814.241	1
36	1	25	195	816.277	4	Aircraft1_10%_23.jpg	0	0.1	816.277	820.016	818.093	0
36	1	25	196	820.286	4	Aircraft1_10%_21.jpg	0	0.1	820.286	824.017	821.495	0
36	1	25	197	824.301	4	Aircraft2_10%_36.jpg	1	0.1	824.301	828.037	826.498	1
36	1	25	198	828.301	4	rest.jpg	n/a	n/a	828.301	832.031	832.301	n/a
36	1	25	199	832.282	4	rest.jpg	n/a	n/a	832.282	836.017	836.282	n/a
36	1	25	200	836.266	4	rest.jpg	n/a	n/a	836.266	839.996	840.266	n/a
36	1	26	201	840.257	4	Aircraft2_90%_24.jpg	1	0.9	840.257	843.987	843.099	1
36	1	26	202	844.264	4	Aircraft2_90%_2.jpg	1	0.9	844.264	847.994	847.088	1
36	1	26	203	848.255	4	Aircraft2_90%_43.jpg	1	0.9	848.255	851.987	850.105	1
36	1	26	204	852.25	4	Aircraft2_90%_46.jpg	1	0.9	852.25	855.98	854.128	1
36	1	26	205	856.263	4	Aircraft1_90%_42.jpg	0	0.9	856.263	859.994	859.464	0
36	1	26	206	860.28	4	rest.jpg	n/a	n/a	860.28	864.012	864.28	n/a
36	1	26	207	864.244	4	rest.jpg	n/a	n/a	864.244	867.977	868.244	n/a
36	1	26	208	868.21	4	rest.jpg	n/a	n/a	868.21	871.944	872.21	n/a
36	1	27	209	872.21	4	Aircraft1_70%_3.jpg	0	0.75	872.21	875.94	874.031	0
36	1	27	210	876.207	4	Aircraft2_70%_28.jpg	1	0.75	876.207	879.937	877.894	1
36	1	27	211	880.225	4	Aircraft1_70%_24.jpg	0	0.75	880.225	883.957	881.803	0
36	1	27	212	884.241	4	Aircraft2_70%_39.jpg	1	0.75	884.241	887.977	887.643	1
36	1	27	213	888.245	4	Aircraft2_70%_8.jpg	1	0.75	888.245	891.983	890.723	1
36	1	27	214	892.264	4	rest.jpg	n/a	n/a	892.264	896	896.264	n/a
36	1	27	215	896.233	4	rest.jpg	n/a	n/a	896.233	899.965	900.233	n/a
36	1	27	216	900.211	4	rest.jpg	n/a	n/a	900.211	903.943	904.211	n/a
36	1	28	217	904.229	4	Aircraft1_10%_12.jpg	0	0.1	904.229	907.958	905.755	0
36	1	28	218	908.225	4	Aircraft2_10%_32.jpg	1	0.1	908.225	911.959	910.564	1
36	1	28	219	912.243	4	Aircraft2_10%_48.jpg	1	0.1	912.243	915.979	914.916	1
36	1	28	220	916.264	4	Aircraft1_10%_19.jpg	0	0.1	916.264	919.994	918.858	0
36	1	28	221	920.272	4	Aircraft1_10%_33.jpg	0	0.1	920.272	924.005	921.751	0
36	1	28	222	924.275	4	rest.jpg	n/a	n/a	924.275	928.005	928.275	n/a
36	1	28	223	928.256	4	rest.jpg	n/a	n/a	928.256	931.989	932.256	n/a
36	1	28	224	932.222	4	rest.jpg	n/a	n/a	932.222	935.952	936.222	n/a
36	1	29	225	936.235	4	Aircraft1_90%_17.jpg	0	0.9	936.235	939.967	937.994	0
36	1	29	226	940.248	4	Aircraft2_90%_42.jpg	1	0.9	940.248	943.982	942.132	1
36	1	29	227	944.243	4	Aircraft2_90%_44.jpg	1	0.9	944.243	947.973	946.611	1
36	1	29	228	948.251	4	Aircraft1_90%_10.jpg	0	0.9	948.251	951.984	951.215	0
36	1	29	229	952.262	4	Aircraft2_90%_25.jpg	1	0.9	952.262	955.995	955.257	1
36	1	29	230	956.279	4	rest.jpg	n/a	n/a	956.279	960.012	960.279	n/a
36	1	29	231	960.261	4	rest.jpg	n/a	n/a	960.261	963.998	964.261	n/a
36	1	29	232	964.231	4	rest.jpg	n/a	n/a	964.231	967.966	968.231	n/a
36	1	30	233	968.25	4	Aircraft1_70%_25.jpg	0	0.75	968.25	971.98	969.678	0
36	1	30	234	972.262	4	Aircraft2_70%_49.jpg	1	0.75	972.262	976	976.262	1
36	1	30	235	976.265	4	Aircraft2_70%_10.jpg	1	0.75	976.265	980	979.628	1
36	1	30	236	980.269	4	Aircraft2_70%_12.jpg	1	0.75	980.269	984.004	983.356	1
36	1	30	237	984.268	4	Aircraft2_70%_7.jpg	1	0.75	984.268	988.004	987.587	1
36	1	30	238	988.284	4	rest.jpg	n/a	n/a	988.284	992.023	992.284	n/a
36	1	30	239	992.255	4	rest.jpg	n/a	n/a	992.255	995.99	996.255	n/a
36	1	30	240	996.237	4	rest.jpg	n/a	n/a	996.237	999.967	1000.237	n/a
