onset	duration	stim_file	stim_lable	levelOfOcclusion	stim_started	stim_stopped	key_time	key_fix	stim_started_1	stim_stopped_1	key_time_1	key_fix_1
40	4	Aircraft1_10%_17.jpg	0	0.1	40	43.739	41.06	0	40	43.739	41.06	0
44.015	4	Aircraft2_10%_42.jpg	1	0.1	44.015	47.748	44.689	1	44.015	47.748	44.689	1
48.034	4	Aircraft2_10%_44.jpg	1	0.1	48.034	51.774	48.667	1	48.034	51.774	48.667	1
52.069	4	Aircraft1_10%_10.jpg	0	0.1	52.069	55.8	52.867	0	52.069	55.8	52.867	0
56.085	4	Aircraft2_10%_25.jpg	1	0.1	56.085	59.816	56.988	1	56.085	59.816	56.988	1
60.107	4	rest.jpg	NaN	NaN	60.107	63.838	64.107	NaN	60.107	63.838	64.107	NaN
64.084	4	rest.jpg	NaN	NaN	64.084	67.818	68.084	NaN	64.084	67.818	68.084	NaN
68.072	4	rest.jpg	NaN	NaN	68.072	71.803	72.072	NaN	68.072	71.803	72.072	NaN
72.074	4	Aircraft1_90%_12.jpg	0	0.9	72.074	75.81	73.747	0	72.074	75.81	73.747	0
76.092	4	Aircraft2_90%_32.jpg	1	0.9	76.092	79.824	77.782	1	76.092	79.824	77.782	1
80.093	4	Aircraft2_90%_48.jpg	1	0.9	80.093	83.829	80.78	1	80.093	83.829	80.78	1
84.116	4	Aircraft1_90%_19.jpg	0	0.9	84.116	87.852	85.324	0	84.116	87.852	85.324	0
88.139	4	Aircraft1_90%_33.jpg	0	0.9	88.139	91.87	90.092	0	88.139	91.87	90.092	0
92.144	4	rest.jpg	NaN	NaN	92.144	95.873	96.144	NaN	92.144	95.873	96.144	NaN
96.122	4	rest.jpg	NaN	NaN	96.122	99.857	100.122	NaN	96.122	99.857	100.122	NaN
100.113	4	rest.jpg	NaN	NaN	100.113	103.844	104.113	NaN	100.113	103.844	104.113	NaN
104.121	4	Aircraft2_70%_33.jpg	1	0.75	104.121	107.85	105.438	1	104.121	107.85	105.438	1
108.142	4	Aircraft2_70%_38.jpg	1	0.75	108.142	111.871	109.195	1	108.142	111.871	109.195	1
112.159	4	Aircraft1_70%_30.jpg	0	0.75	112.159	115.889	115.023	0	112.159	115.889	115.023	0
116.166	4	Aircraft1_70%_41.jpg	0	0.75	116.166	119.896	118.813	0	116.166	119.896	118.813	0
120.187	4	Aircraft1_70%_18.jpg	0	0.75	120.187	123.922	121.046	0	120.187	123.922	121.046	0
124.209	4	rest.jpg	NaN	NaN	124.209	127.941	128.209	NaN	124.209	127.941	128.209	NaN
128.174	4	rest.jpg	NaN	NaN	128.174	131.91	132.174	NaN	128.174	131.91	132.174	NaN
132.158	4	rest.jpg	NaN	NaN	132.158	135.889	136.158	NaN	132.158	135.889	136.158	NaN
136.182	4	Aircraft2_10%_24.jpg	1	0.1	136.182	139.913	137.294	1	136.182	139.913	137.294	1
140.19	4	Aircraft2_10%_2.jpg	1	0.1	140.19	143.919	141.269	1	140.19	143.919	141.269	1
144.216	4	Aircraft2_10%_43.jpg	1	0.1	144.216	147.951	145.327	1	144.216	147.951	145.327	1
148.231	4	Aircraft2_10%_46.jpg	1	0.1	148.231	151.969	149.023	1	148.231	151.969	149.023	1
152.258	4	Aircraft1_10%_42.jpg	0	0.1	152.258	155.992	153.296	0	152.258	155.992	153.296	0
156.279	4	rest.jpg	NaN	NaN	156.279	160.013	160.279	NaN	156.279	160.013	160.279	NaN
160.259	4	rest.jpg	NaN	NaN	160.259	163.988	164.259	NaN	160.259	163.988	164.259	NaN
164.228	4	rest.jpg	NaN	NaN	164.228	167.958	168.228	NaN	164.228	167.958	168.228	NaN
168.229	4	Aircraft2_90%_9.jpg	1	0.9	168.229	171.96	169.525	1	168.229	171.96	169.525	1
172.247	4	Aircraft2_90%_6.jpg	1	0.9	172.247	175.979	174.154	1	172.247	175.979	174.154	1
176.248	4	Aircraft1_90%_23.jpg	0	0.9	176.248	179.982	177.668	0	176.248	179.982	177.668	0
180.271	4	Aircraft1_90%_21.jpg	0	0.9	180.271	184.006	182.237	0	180.271	184.006	182.237	0
184.275	4	Aircraft2_90%_36.jpg	1	0.9	184.275	188.006	186.728	1	184.275	188.006	186.728	1
188.278	4	rest.jpg	NaN	NaN	188.278	192.006	192.278	NaN	188.278	192.006	192.278	NaN
192.239	4	rest.jpg	NaN	NaN	192.239	195.971	196.239	NaN	192.239	195.971	196.239	NaN
196.206	4	rest.jpg	NaN	NaN	196.206	199.937	200.206	NaN	196.206	199.937	200.206	NaN
200.228	4	Aircraft2_70%_31.jpg	1	0.75	200.228	203.962	201.167	1	200.228	203.962	201.167	1
204.237	4	Aircraft1_70%_4.jpg	0	0.75	204.237	207.966	206.04	0	204.237	207.966	206.04	0
208.261	4	Aircraft2_70%_20.jpg	1	0.75	208.261	211.991	210.436	1	208.261	211.991	210.436	1
212.266	4	Aircraft1_70%_7.jpg	0	0.75	212.266	216.001	213.231	0	212.266	216.001	213.231	0
216.277	4	Aircraft1_70%_8.jpg	0	0.75	216.277	220.012	217.42	0	216.277	220.012	217.42	0
220.284	4	rest.jpg	NaN	NaN	220.284	224.019	224.284	NaN	220.284	224.019	224.284	NaN
224.271	4	rest.jpg	NaN	NaN	224.271	228.001	228.271	NaN	224.271	228.001	228.271	NaN
228.255	4	rest.jpg	NaN	NaN	228.255	231.986	232.255	NaN	228.255	231.986	232.255	NaN
232.261	4	Aircraft2_10%_31.jpg	1	0.1	232.261	235.995	233.739	1	232.261	235.995	233.739	1
236.289	4	Aircraft1_10%_4.jpg	0	0.1	236.289	240.024	237.02	0	236.289	240.024	237.02	0
240.306	4	Aircraft2_10%_20.jpg	1	0.1	240.306	244.037	241.29	1	240.306	244.037	241.29	1
244.313	4	Aircraft1_10%_7.jpg	0	0.1	244.313	248.044	245.329	0	244.313	248.044	245.329	0
248.335	4	Aircraft1_10%_8.jpg	0	0.1	248.335	252.07	249.328	0	248.335	252.07	249.328	0
252.358	4	rest.jpg	NaN	NaN	252.358	256.088	256.358	NaN	252.358	256.088	256.358	NaN
256.338	4	rest.jpg	NaN	NaN	256.338	260.07	260.338	NaN	256.338	260.07	260.338	NaN
260.304	4	rest.jpg	NaN	NaN	260.304	264.038	264.304	NaN	260.304	264.038	264.304	NaN
264.321	4	Aircraft2_90%_41.jpg	1	0.9	264.321	268.053	266.148	1	264.321	268.053	266.148	1
268.339	4	Aircraft1_90%_22.jpg	0	0.9	268.339	272.068	269.416	0	268.339	272.068	269.416	0
272.333	4	Aircraft1_90%_44.jpg	0	0.9	272.333	276.063	273.352	0	272.333	276.063	273.352	0
276.331	4	Aircraft1_90%_1.jpg	0	0.9	276.331	280.061	277.099	0	276.331	280.061	277.099	0
280.344	4	Aircraft2_90%_37.jpg	1	0.9	280.344	284.073	281.122	1	280.344	284.073	281.122	1
284.346	4	rest.jpg	NaN	NaN	284.346	288.076	288.346	NaN	284.346	288.076	288.346	NaN
288.324	4	rest.jpg	NaN	NaN	288.324	292.053	292.324	NaN	288.324	292.053	292.324	NaN
292.302	4	rest.jpg	NaN	NaN	292.302	296.036	296.302	NaN	292.302	296.036	296.302	NaN
296.308	4	Aircraft2_70%_41.jpg	1	0.75	296.308	300.036	297.443	1	296.308	300.036	297.443	1
300.308	4	Aircraft1_70%_22.jpg	0	0.75	300.308	304.046	301.406	0	300.308	304.046	301.406	0
304.329	4	Aircraft1_70%_44.jpg	0	0.75	304.329	308.058	305.803	0	304.329	308.058	305.803	0
308.348	4	Aircraft1_70%_1.jpg	0	0.75	308.348	312.077	309.42	0	308.348	312.077	309.42	0
312.364	4	Aircraft2_70%_37.jpg	1	0.75	312.364	316.1	313.478	1	312.364	316.1	313.478	1
316.37	4	rest.jpg	NaN	NaN	316.37	320.099	320.37	NaN	316.37	320.099	320.37	NaN
320.333	4	rest.jpg	NaN	NaN	320.333	324.062	324.333	NaN	320.333	324.062	324.333	NaN
324.311	4	rest.jpg	NaN	NaN	324.311	328.04	328.311	NaN	324.311	328.04	328.311	NaN
328.325	4	Aircraft2_10%_33.jpg	1	0.1	328.325	332.055	329.476	1	328.325	332.055	329.476	1
332.33	4	Aircraft2_10%_38.jpg	1	0.1	332.33	336.063	333.454	1	332.33	336.063	333.454	1
336.336	4	Aircraft1_10%_30.jpg	0	0.1	336.336	340.071	337.459	0	336.336	340.071	337.459	0
340.359	4	Aircraft1_10%_41.jpg	0	0.1	340.359	344.096	341.047	0	340.359	344.096	341.047	0
344.367	4	Aircraft1_10%_18.jpg	0	0.1	344.367	348.096	345.375	0	344.367	348.096	345.375	0
348.385	4	rest.jpg	NaN	NaN	348.385	352.121	352.385	NaN	348.385	352.121	352.385	NaN
352.37	4	rest.jpg	NaN	NaN	352.37	356.105	356.37	NaN	352.37	356.105	356.37	NaN
356.355	4	rest.jpg	NaN	NaN	356.355	360.086	360.355	NaN	356.355	360.086	360.355	NaN
360.353	4	Aircraft2_90%_23.jpg	1	0.9	360.353	364.085	361.956	1	360.353	364.085	361.956	1
364.409	4	Aircraft1_90%_28.jpg	0	0.9	364.409	368.145	366.176	0	364.409	368.145	366.176	0
368.427	4	Aircraft2_90%_13.jpg	1	0.9	368.427	372.156	369.688	1	368.427	372.156	369.688	1
372.44	4	Aircraft1_90%_45.jpg	0	0.9	372.44	376.174	373.485	0	372.44	376.174	373.485	0
376.455	4	Aircraft1_90%_37.jpg	0	0.9	376.455	380.187	378.609	0	376.455	380.187	378.609	0
380.476	4	rest.jpg	NaN	NaN	380.476	384.207	384.476	NaN	380.476	384.207	384.476	NaN
384.439	4	rest.jpg	NaN	NaN	384.439	388.168	388.439	NaN	384.439	388.168	388.439	NaN
388.418	4	rest.jpg	NaN	NaN	388.418	392.154	392.418	NaN	388.418	392.154	392.418	NaN
392.438	4	Aircraft1_70%_2.jpg	0	0.75	392.438	396.167	393.536	0	392.438	396.167	393.536	0
396.443	4	Aircraft1_70%_39.jpg	0	0.75	396.443	400.177	397.99	0	396.443	400.177	397.99	0
400.471	4	Aircraft2_70%_26.jpg	1	0.75	400.471	404.2	402.916	1	400.471	404.2	402.916	1
404.494	4	Aircraft1_70%_15.jpg	0	0.75	404.494	408.228	405.598	0	404.494	408.228	405.598	0
408.501	4	Aircraft2_70%_16.jpg	1	0.75	408.501	412.23	409.63	1	408.501	412.23	409.63	1
412.517	4	rest.jpg	NaN	NaN	412.517	416.246	416.517	NaN	412.517	416.246	416.517	NaN
416.495	4	rest.jpg	NaN	NaN	416.495	420.226	420.495	NaN	416.495	420.226	420.495	NaN
420.46	4	rest.jpg	NaN	NaN	420.46	424.189	424.46	NaN	420.46	424.189	424.46	NaN
424.477	4	Aircraft2_10%_4.jpg	1	0.1	424.477	428.206	425.645	1	424.477	428.206	425.645	1
428.482	4	Aircraft1_10%_43.jpg	0	0.1	428.482	432.213	429.32	0	428.482	432.213	429.32	0
432.505	4	Aircraft1_10%_9.jpg	0	0.1	432.505	436.234	433.485	0	432.505	436.234	433.485	0
436.531	4	Aircraft1_10%_11.jpg	0	0.1	436.531	440.267	437.541	0	436.531	440.267	437.541	0
440.538	4	Aircraft1_10%_50.jpg	0	0.1	440.538	444.267	441.622	0	440.538	444.267	441.622	0
444.573	4	rest.jpg	NaN	NaN	444.573	448.308	448.573	NaN	444.573	448.308	448.573	NaN
448.54	4	rest.jpg	NaN	NaN	448.54	452.274	452.54	NaN	448.54	452.274	452.54	NaN
452.508	4	rest.jpg	NaN	NaN	452.508	456.24	456.508	NaN	452.508	456.24	456.508	NaN
456.525	4	Aircraft1_90%_38.jpg	0	0.9	456.525	460.261	458.766	0	456.525	460.261	458.766	0
460.529	4	Aircraft2_90%_21.jpg	1	0.9	460.529	464.26	461.65	1	460.529	464.26	461.65	1
464.548	4	Aircraft1_90%_16.jpg	0	0.9	464.548	468.279	466.81	0	464.548	468.279	466.81	0
468.547	4	Aircraft1_90%_46.jpg	0	0.9	468.547	472.278	471.357	0	468.547	472.278	471.357	0
472.56	4	Aircraft2_90%_40.jpg	1	0.9	472.56	476.29	473.942	1	472.56	476.29	473.942	1
476.58	4	rest.jpg	NaN	NaN	476.58	480.317	480.58	NaN	476.58	480.317	480.58	NaN
480.561	4	rest.jpg	NaN	NaN	480.561	484.29	484.561	NaN	480.561	484.29	484.561	NaN
484.539	4	rest.jpg	NaN	NaN	484.539	488.274	488.539	NaN	484.539	488.274	488.539	NaN
488.561	4	Aircraft1_70%_36.jpg	0	0.75	488.561	492.298	490.089	0	488.561	492.298	490.089	0
492.59	4	Aircraft1_70%_35.jpg	0	0.75	492.59	496.324	493.813	0	492.59	496.324	493.813	0
496.598	4	Aircraft2_70%_3.jpg	1	0.75	496.598	500.332	497.443	1	496.598	500.332	497.443	1
500.638	4	Aircraft1_70%_5.jpg	0	0.75	500.638	504.373	503.476	0	500.638	504.373	503.476	0
504.648	4	Aircraft1_70%_48.jpg	0	0.75	504.648	508.377	507.501	0	504.648	508.377	507.501	0
508.668	4	rest.jpg	NaN	NaN	508.668	512.396	512.668	NaN	508.668	512.396	512.668	NaN
512.644	4	rest.jpg	NaN	NaN	512.644	516.378	516.644	NaN	512.644	516.378	516.644	NaN
516.61	4	rest.jpg	NaN	NaN	516.61	520.342	520.61	NaN	516.61	520.342	520.61	NaN
520.611	4	Aircraft2_10%_18.jpg	1	0.1	520.611	524.345	521.918	1	520.611	524.345	521.918	1
524.639	4	Aircraft1_10%_29.jpg	0	0.1	524.639	528.374	526.006	0	524.639	528.374	526.006	0
528.658	4	Aircraft2_10%_1.jpg	1	0.1	528.658	532.387	529.855	1	528.658	532.387	529.855	1
532.68	4	Aircraft1_10%_26.jpg	0	0.1	532.68	536.409	533.63	0	532.68	536.409	533.63	0
536.68	4	Aircraft2_10%_34.jpg	1	0.1	536.68	540.411	537.828	1	536.68	540.411	537.828	1
540.7	4	rest.jpg	NaN	NaN	540.7	544.431	544.7	NaN	540.7	544.431	544.7	NaN
544.665	4	rest.jpg	NaN	NaN	544.665	548.396	548.665	NaN	544.665	548.396	548.665	NaN
548.628	4	rest.jpg	NaN	NaN	548.628	552.363	552.628	NaN	548.628	552.363	552.628	NaN
552.63	4	Aircraft2_90%_30.jpg	1	0.9	552.63	556.364	554.695	1	552.63	556.364	554.695	1
556.647	4	Aircraft2_90%_27.jpg	1	0.9	556.647	560.377	557.58	1	556.647	560.377	557.58	1
560.654	4	Aircraft2_90%_50.jpg	1	0.9	560.654	564.389	562.294	1	560.654	564.389	562.294	1
564.672	4	Aircraft2_90%_29.jpg	1	0.9	564.672	568.401	565.587	1	564.672	568.401	565.587	1
568.671	4	Aircraft1_90%_6.jpg	0	0.9	568.671	572.401	569.925	0	568.671	572.401	569.925	0
572.691	4	rest.jpg	NaN	NaN	572.691	576.42	576.691	NaN	572.691	576.42	576.691	NaN
576.654	4	rest.jpg	NaN	NaN	576.654	580.388	580.654	NaN	576.654	580.388	580.654	NaN
580.636	4	rest.jpg	NaN	NaN	580.636	584.364	584.636	NaN	580.636	584.364	584.636	NaN
584.634	4	Aircraft2_70%_17.jpg	1	0.75	584.634	588.365	585.635	1	584.634	588.365	585.635	1
588.651	4	Aircraft2_70%_11.jpg	1	0.75	588.651	592.386	590.07	1	588.651	592.386	590.07	1
592.655	4	Aircraft1_70%_20.jpg	0	0.75	592.655	596.389	593.554	0	592.655	596.389	593.554	0
596.669	4	Aircraft2_70%_47.jpg	1	0.75	596.669	600.4	598.083	1	596.669	600.4	598.083	1
600.673	4	Aircraft2_70%_45.jpg	1	0.75	600.673	604.405	601.491	1	600.673	604.405	601.491	1
604.676	4	rest.jpg	NaN	NaN	604.676	608.411	608.676	NaN	604.676	608.411	608.676	NaN
608.645	4	rest.jpg	NaN	NaN	608.645	612.377	612.645	NaN	608.645	612.377	612.645	NaN
612.611	4	rest.jpg	NaN	NaN	612.611	616.343	616.611	NaN	612.611	616.343	616.611	NaN
616.62	4	Aircraft1_10%_32.jpg	0	0.1	616.62	620.355	617.664	0	616.62	620.355	617.664	0
620.63	4	Aircraft1_10%_49.jpg	0	0.1	620.63	624.361	621.485	0	620.63	624.361	621.485	0
624.649	4	Aircraft2_10%_22.jpg	1	0.1	624.649	628.384	625.469	1	624.649	628.384	625.469	1
628.675	4	Aircraft1_10%_34.jpg	0	0.1	628.675	632.407	629.458	0	628.675	632.407	629.458	0
632.698	4	Aircraft1_10%_14.jpg	0	0.1	632.698	636.429	634.223	0	632.698	636.429	634.223	0
636.716	4	rest.jpg	NaN	NaN	636.716	640.446	640.716	NaN	636.716	640.446	640.716	NaN
640.68	4	rest.jpg	NaN	NaN	640.68	644.411	644.68	NaN	640.68	644.411	644.68	NaN
644.659	4	rest.jpg	NaN	NaN	644.659	648.394	648.659	NaN	644.659	648.394	648.659	NaN
648.661	4	Aircraft1_90%_1.jpg	0	0.9	648.661	652.395	650.015	0	648.661	652.395	650.015	0
652.704	4	Aircraft1_90%_47.jpg	0	0.9	652.704	656.432	655.244	0	652.704	656.432	655.244	0
656.699	4	Aircraft1_90%_40.jpg	0	0.9	656.699	660.433	657.641	0	656.699	660.433	657.641	0
660.714	4	Aircraft1_90%_27.jpg	0	0.9	660.714	664.445	662.749	0	660.714	664.445	662.749	0
664.713	4	Aircraft2_90%_35.jpg	1	0.9	664.713	668.449	666.64	1	664.713	668.449	666.64	1
668.719	4	rest.jpg	NaN	NaN	668.719	672.453	672.719	NaN	668.719	672.453	672.719	NaN
672.688	4	rest.jpg	NaN	NaN	672.688	676.424	676.688	NaN	672.688	676.424	676.688	NaN
676.657	4	rest.jpg	NaN	NaN	676.657	680.389	680.657	NaN	676.657	680.389	680.657	NaN
680.663	4	Aircraft2_70%_23.jpg	1	0.75	680.663	684.399	681.753	1	680.663	684.399	681.753	1
684.687	4	Aircraft1_70%_28.jpg	0	0.75	684.687	688.417	685.632	0	684.687	688.417	685.632	0
688.691	4	Aircraft2_70%_13.jpg	1	0.75	688.691	692.419	689.508	1	688.691	692.419	689.508	1
692.709	4	Aircraft1_70%_45.jpg	0	0.75	692.709	696.44	693.668	0	692.709	696.44	693.668	0
696.728	4	Aircraft1_70%_37.jpg	0	0.75	696.728	700.462	697.669	0	696.728	700.462	697.669	0
700.733	4	rest.jpg	NaN	NaN	700.733	704.467	704.733	NaN	700.733	704.467	704.733	NaN
704.715	4	rest.jpg	NaN	NaN	704.715	708.451	708.715	NaN	704.715	708.451	708.715	NaN
708.685	4	rest.jpg	NaN	NaN	708.685	712.419	712.685	NaN	708.685	712.419	712.685	NaN
712.707	4	Aircraft1_10%_25.jpg	0	0.1	712.707	716.441	713.71	0	712.707	716.441	713.71	0
716.731	4	Aircraft2_10%_49.jpg	1	0.1	716.731	720.462	717.519	1	716.731	720.462	717.519	1
720.737	4	Aircraft2_10%_10.jpg	1	0.1	720.737	724.472	721.636	1	720.737	724.472	721.636	1
724.766	4	Aircraft2_10%_12.jpg	1	0.1	724.766	728.495	725.61	1	724.766	728.495	725.61	1
728.779	4	Aircraft2_10%_7.jpg	1	0.1	728.779	732.508	729.487	1	728.779	732.508	729.487	1
732.795	4	rest.jpg	NaN	NaN	732.795	736.524	736.795	NaN	732.795	736.524	736.795	NaN
736.758	4	rest.jpg	NaN	NaN	736.758	740.487	740.758	NaN	736.758	740.487	740.758	NaN
740.737	4	rest.jpg	NaN	NaN	740.737	744.466	744.737	NaN	740.737	744.466	744.737	NaN
744.749	4	Aircraft2_90%_17.jpg	1	0.9	744.749	748.485	746.316	1	744.749	748.485	746.316	1
748.77	4	Aircraft2_90%_11.jpg	1	0.9	748.77	752.502	750.653	1	748.77	752.502	750.653	1
752.769	4	Aircraft1_90%_20.jpg	0	0.9	752.769	756.505	754.037	0	752.769	756.505	754.037	0
756.792	4	Aircraft2_90%_47.jpg	1	0.9	756.792	760.524	757.523	1	756.792	760.524	757.523	1
760.806	4	Aircraft2_90%_45.jpg	1	0.9	760.806	764.535	761.722	1	760.806	764.535	761.722	1
764.807	4	rest.jpg	NaN	NaN	764.807	768.537	768.807	NaN	764.807	768.537	768.807	NaN
768.771	4	rest.jpg	NaN	NaN	768.771	772.5	772.771	NaN	768.771	772.5	772.771	NaN
772.75	4	rest.jpg	NaN	NaN	772.75	776.485	776.75	NaN	772.75	776.485	776.75	NaN
776.753	4	Aircraft1_70%_38.jpg	0	0.75	776.753	780.487	777.607	0	776.753	780.487	777.607	0
780.771	4	Aircraft2_70%_21.jpg	1	0.75	780.771	784.502	781.475	1	780.771	784.502	781.475	1
784.791	4	Aircraft1_70%_16.jpg	0	0.75	784.791	788.521	786.037	0	784.791	788.521	786.037	0
788.812	4	Aircraft1_70%_46.jpg	0	0.75	788.812	792.544	790.836	0	788.812	792.544	790.836	0
792.817	4	Aircraft2_70%_40.jpg	1	0.75	792.817	796.545	793.634	1	792.817	796.545	793.634	1
796.826	4	rest.jpg	NaN	NaN	796.826	800.562	800.826	NaN	796.826	800.562	800.826	NaN
800.804	4	rest.jpg	NaN	NaN	800.804	804.535	804.804	NaN	800.804	804.535	804.804	NaN
804.782	4	rest.jpg	NaN	NaN	804.782	808.517	808.782	NaN	804.782	808.517	808.782	NaN
808.792	4	Aircraft1_10%_3.jpg	0	0.1	808.792	812.521	809.727	0	808.792	812.521	809.727	0
812.791	4	Aircraft2_10%_28.jpg	1	0.1	812.791	816.522	813.514	1	812.791	816.522	813.514	1
816.808	4	Aircraft1_10%_24.jpg	0	0.1	816.808	820.542	817.531	0	816.808	820.542	817.531	0
820.831	4	Aircraft2_10%_39.jpg	1	0.1	820.831	824.568	821.823	1	820.831	824.568	821.823	1
824.86	4	Aircraft2_10%_8.jpg	1	0.1	824.86	828.589	825.835	1	824.86	828.589	825.835	1
828.88	4	rest.jpg	NaN	NaN	828.88	832.608	832.88	NaN	828.88	832.608	832.88	NaN
832.84	4	rest.jpg	NaN	NaN	832.84	836.572	836.84	NaN	832.84	836.572	836.84	NaN
836.804	4	rest.jpg	NaN	NaN	836.804	840.535	840.804	NaN	836.804	840.535	840.804	NaN
840.8	4	Aircraft1_90%_36.jpg	0	0.9	840.8	844.529	842.5	0	840.8	844.529	842.5	0
844.814	4	Aircraft1_90%_35.jpg	0	0.9	844.814	848.543	846.693	0	844.814	848.543	846.693	0
848.827	4	Aircraft2_90%_3.jpg	1	0.9	848.827	852.556	850.286	1	848.827	852.556	850.286	1
852.842	4	Aircraft1_90%_5.jpg	0	0.9	852.842	856.577	854.236	0	852.842	856.577	854.236	0
856.844	4	Aircraft1_90%_48.jpg	0	0.9	856.844	860.573	858.309	0	856.844	860.573	858.309	0
860.861	4	rest.jpg	NaN	NaN	860.861	864.597	864.861	NaN	860.861	864.597	864.861	NaN
864.846	4	rest.jpg	NaN	NaN	864.846	868.579	868.846	NaN	864.846	868.579	868.846	NaN
868.811	4	rest.jpg	NaN	NaN	868.811	872.542	872.811	NaN	868.811	872.542	872.811	NaN
872.829	4	Aircraft2_70%_30.jpg	1	0.75	872.829	876.564	874.21	1	872.829	876.564	874.21	1
876.838	4	Aircraft2_70%_27.jpg	1	0.75	876.838	880.569	877.947	1	876.838	880.569	877.947	1
880.838	4	Aircraft2_70%_50.jpg	1	0.75	880.838	884.573	882.227	1	880.838	884.573	882.227	1
884.865	4	Aircraft2_70%_29.jpg	1	0.75	884.865	888.599	885.927	1	884.865	888.599	885.927	1
888.894	4	Aircraft1_70%_6.jpg	0	0.75	888.894	892.63	890.649	0	888.894	892.63	890.649	0
892.915	4	rest.jpg	NaN	NaN	892.915	896.644	896.915	NaN	892.915	896.644	896.915	NaN
896.878	4	rest.jpg	NaN	NaN	896.878	900.608	900.878	NaN	896.878	900.608	900.878	NaN
900.854	4	rest.jpg	NaN	NaN	900.854	904.589	904.854	NaN	900.854	904.589	904.854	NaN
904.862	4	Aircraft2_10%_14.jpg	1	0.1	904.862	908.594	905.749	1	904.862	908.594	905.749	1
908.881	4	Aircraft2_10%_5.jpg	1	0.1	908.881	912.616	909.935	1	908.881	912.616	909.935	1
912.908	4	Aircraft2_10%_15.jpg	1	0.1	912.908	916.643	914.277	1	912.908	916.643	914.277	1
916.917	4	Aircraft2_10%_19.jpg	1	0.1	916.917	920.651	918.494	1	916.917	920.651	918.494	1
920.943	4	Aircraft1_10%_31.jpg	0	0.1	920.943	924.672	922.031	0	920.943	924.672	922.031	0
924.961	4	rest.jpg	NaN	NaN	924.961	928.69	928.961	NaN	924.961	928.69	928.961	NaN
928.924	4	rest.jpg	NaN	NaN	928.924	932.654	932.924	NaN	928.924	932.654	932.924	NaN
932.888	4	rest.jpg	NaN	NaN	932.888	936.622	936.888	NaN	932.888	936.622	936.888	NaN
936.904	4	Aircraft1_90%_2.jpg	0	0.9	936.904	940.632	938.624	0	936.904	940.632	938.624	0
940.918	4	Aircraft1_90%_39.jpg	0	0.9	940.918	944.647	941.827	0	940.918	944.647	941.827	0
944.916	4	Aircraft2_90%_26.jpg	1	0.9	944.916	948.647	945.69	1	944.916	948.647	945.69	1
948.915	4	Aircraft1_90%_15.jpg	0	0.9	948.915	952.644	949.843	0	948.915	952.644	949.843	0
952.927	4	Aircraft2_90%_16.jpg	1	0.9	952.927	956.662	954.153	1	952.927	956.662	954.153	1
956.952	4	rest.jpg	NaN	NaN	956.952	960.683	960.952	NaN	956.952	960.683	960.952	NaN
960.931	4	rest.jpg	NaN	NaN	960.931	964.665	964.931	NaN	960.931	964.665	964.931	NaN
964.915	4	rest.jpg	NaN	NaN	964.915	968.651	968.915	NaN	964.915	968.651	968.915	NaN
968.924	4	Aircraft1_70%_1.jpg	0	0.75	968.924	972.653	970.223	0	968.924	972.653	970.223	0
972.945	4	Aircraft1_70%_47.jpg	0	0.75	972.945	976.673	975.374	0	972.945	976.673	975.374	0
976.945	4	Aircraft1_70%_40.jpg	0	0.75	976.945	980.681	978.029	0	976.945	980.681	978.029	0
980.967	4	Aircraft1_70%_27.jpg	0	0.75	980.967	984.696	981.861	0	980.967	984.696	981.861	0
984.978	4	Aircraft2_70%_35.jpg	1	0.75	984.978	988.712	985.737	1	984.978	988.712	985.737	1
988.983	4	rest.jpg	NaN	NaN	988.983	992.712	992.983	NaN	988.983	992.712	992.983	NaN
992.961	4	rest.jpg	NaN	NaN	992.961	996.69	996.961	NaN	992.961	996.69	996.961	NaN
996.924	4	rest.jpg	NaN	NaN	996.924	1000.655	1000.924	NaN	996.924	1000.655	1000.924	NaN
