sub	run	block	trail	oneset	duration	stim_file	stim_lable	level of occlusion	stim_started	stim_stopped	key_time	key_fix
17	1	1	1	40.007	4	Aircraft1_10%_2.jpg	0	0.1	40.007	43.744	42.415	0
17	1	1	2	44.029	4	Aircraft1_10%_39.jpg	0	0.1	44.029	47.76	45.308	0
17	1	1	3	48.047	4	Aircraft2_10%_26.jpg	1	0.1	48.047	51.778	49.978	1
17	1	1	4	52.071	4	Aircraft1_10%_15.jpg	0	0.1	52.071	55.804	53.797	0
17	1	1	5	56.08	4	Aircraft2_10%_16.jpg	1	0.1	56.08	59.816	57.289	1
17	1	1	6	60.105	4	rest.jpg	n/a	n/a	60.105	63.837	64.105	n/a
17	1	1	7	64.089	4	rest.jpg	n/a	n/a	64.089	67.825	68.089	n/a
17	1	1	8	68.062	4	rest.jpg	n/a	n/a	68.062	71.793	72.062	n/a
17	1	2	9	72.082	4	Aircraft2_90%_14.jpg	1	0.9	72.082	75.815	73.924	1
17	1	2	10	76.081	4	Aircraft2_90%_5.jpg	1	0.9	76.081	79.811	79.43	1
17	1	2	11	80.08	4	Aircraft2_90%_15.jpg	1	0.9	80.08	83.812	81.897	1
17	1	2	12	84.097	4	Aircraft2_90%_19.jpg	1	0.9	84.097	87.833	87.663	1
17	1	2	13	88.101	4	Aircraft1_90%_31.jpg	0	0.9	88.101	91.837	92.101	0
17	1	2	14	92.121	4	rest.jpg	n/a	n/a	92.121	95.858	96.121	n/a
17	1	2	15	96.094	4	rest.jpg	n/a	n/a	96.094	99.83	100.094	n/a
17	1	2	16	100.085	4	rest.jpg	n/a	n/a	100.085	103.82	104.085	n/a
17	1	3	17	104.1	4	Aircraft2_70%_4.jpg	1	0.75	104.1	107.829	107.276	1
17	1	3	18	108.114	4	Aircraft1_70%_43.jpg	0	0.75	108.114	111.851	111.001	0
17	1	3	19	112.141	4	Aircraft1_70%_9.jpg	0	0.75	112.141	115.872	116.141	0
17	1	3	20	116.157	4	Aircraft1_70%_11.jpg	0	0.75	116.157	119.893	118.803	0
17	1	3	21	120.182	4	Aircraft1_70%_50.jpg	0	0.75	120.182	123.912	123.419	0
17	1	3	22	124.193	4	rest.jpg	n/a	n/a	124.193	127.929	128.193	n/a
17	1	3	23	128.179	4	rest.jpg	n/a	n/a	128.179	131.915	132.179	n/a
17	1	3	24	132.15	4	rest.jpg	n/a	n/a	132.15	135.884	136.15	n/a
17	1	4	25	136.156	4	Aircraft1_10%_36.jpg	0	0.1	136.156	139.895	138.134	0
17	1	4	26	140.18	4	Aircraft1_10%_35.jpg	0	0.1	140.18	143.91	142.313	0
17	1	4	27	144.198	4	Aircraft2_10%_3.jpg	1	0.1	144.198	147.934	146.186	1
17	1	4	28	148.223	4	Aircraft1_10%_5.jpg	0	0.1	148.223	151.954	149.798	0
17	1	4	29	152.244	4	Aircraft1_10%_48.jpg	0	0.1	152.244	155.979	154.242	0
17	1	4	30	156.25	4	rest.jpg	n/a	n/a	156.25	159.982	160.25	n/a
17	1	4	31	160.223	4	rest.jpg	n/a	n/a	160.223	163.96	164.223	n/a
17	1	4	32	164.215	4	rest.jpg	n/a	n/a	164.215	167.951	168.215	n/a
17	1	5	33	168.24	4	Aircraft1_90%_3.jpg	0	0.9	168.24	171.97	170.221	0
17	1	5	34	172.238	4	Aircraft2_90%_28.jpg	1	0.9	172.238	175.969	176.238	1
17	1	5	35	176.241	4	Aircraft1_90%_24.jpg	0	0.9	176.241	179.973	176.325	0
17	1	5	36	180.252	4	Aircraft2_90%_39.jpg	1	0.9	180.252	183.984	181.91	1
17	1	5	37	184.267	4	Aircraft2_90%_8.jpg	1	0.9	184.267	187.999	186.673	1
17	1	5	38	188.287	4	rest.jpg	n/a	n/a	188.287	192.02	192.287	n/a
17	1	5	39	192.253	4	rest.jpg	n/a	n/a	192.253	195.989	196.253	n/a
17	1	5	40	196.24	4	rest.jpg	n/a	n/a	196.24	199.975	200.24	n/a
17	1	6	41	200.265	4	Aircraft2_70%_18.jpg	1	0.75	200.265	203.997	202.264	1
17	1	6	42	204.286	4	Aircraft1_70%_29.jpg	0	0.75	204.286	208.015	206.006	0
17	1	6	43	208.303	4	Aircraft2_70%_1.jpg	1	0.75	208.303	212.036	210.995	1
17	1	6	44	212.327	4	Aircraft1_70%_26.jpg	0	0.75	212.327	216.057	214.813	0
17	1	6	45	216.334	4	Aircraft2_70%_34.jpg	1	0.75	216.334	220.07	218.999	1
17	1	6	46	220.361	4	rest.jpg	n/a	n/a	220.361	224.1	224.361	n/a
17	1	6	47	224.334	4	rest.jpg	n/a	n/a	224.334	228.069	228.334	n/a
17	1	6	48	228.302	4	rest.jpg	n/a	n/a	228.302	232.04	232.302	n/a
17	1	7	49	232.31	4	Aircraft2_10%_17.jpg	1	0.1	232.31	236.046	233.896	1
17	1	7	50	236.32	4	Aircraft2_10%_11.jpg	1	0.1	236.32	240.052	237.745	1
17	1	7	51	240.343	4	Aircraft1_10%_20.jpg	0	0.1	240.343	244.079	241.214	0
17	1	7	52	244.352	4	Aircraft2_10%_47.jpg	1	0.1	244.352	248.087	245.519	1
17	1	7	53	248.355	4	Aircraft2_10%_45.jpg	1	0.1	248.355	252.086	249.671	1
17	1	7	54	252.357	4	rest.jpg	n/a	n/a	252.357	256.089	256.357	n/a
17	1	7	55	256.323	4	rest.jpg	n/a	n/a	256.323	260.055	260.323	n/a
17	1	7	56	260.304	4	rest.jpg	n/a	n/a	260.304	264.034	264.304	n/a
17	1	8	57	264.315	4	Aircraft1_90%_25.jpg	0	0.9	264.315	268.045	266.129	0
17	1	8	58	268.312	4	Aircraft2_90%_49.jpg	1	0.9	268.312	272.044	270.836	1
17	1	8	59	272.311	4	Aircraft2_90%_10.jpg	1	0.9	272.311	276.042	275.007	1
17	1	8	60	276.326	4	Aircraft2_90%_12.jpg	1	0.9	276.326	280.056	279.178	1
17	1	8	61	280.332	4	Aircraft2_90%_7.jpg	1	0.9	280.332	284.063	283.901	1
17	1	8	62	284.334	4	rest.jpg	n/a	n/a	284.334	288.073	288.334	n/a
17	1	8	63	288.307	4	rest.jpg	n/a	n/a	288.307	292.038	292.307	n/a
17	1	8	64	292.272	4	rest.jpg	n/a	n/a	292.272	296.007	296.272	n/a
17	1	9	65	296.293	4	Aircraft1_70%_32.jpg	0	0.75	296.293	300.025	298.522	0
17	1	9	66	300.298	4	Aircraft1_70%_49.jpg	0	0.75	300.298	304.035	302.9	0
17	1	9	67	304.304	4	Aircraft2_70%_22.jpg	1	0.75	304.304	308.035	306.11	1
17	1	9	68	308.309	4	Aircraft1_70%_34.jpg	0	0.75	308.309	312.043	310.548	0
17	1	9	69	312.314	4	Aircraft1_70%_14.jpg	0	0.75	312.314	316.044	315.846	0
17	1	9	70	316.327	4	rest.jpg	n/a	n/a	316.327	320.06	320.327	n/a
17	1	9	71	320.292	4	rest.jpg	n/a	n/a	320.292	324.025	324.292	n/a
17	1	9	72	324.259	4	rest.jpg	n/a	n/a	324.259	327.994	328.259	n/a
17	1	10	73	328.269	4	Aircraft1_10%_1.jpg	0	0.1	328.269	332.001	330.743	0
17	1	10	74	332.287	4	Aircraft1_10%_47.jpg	0	0.1	332.287	336.019	334.073	0
17	1	10	75	336.294	4	Aircraft1_10%_40.jpg	0	0.1	336.294	340.026	338.341	0
17	1	10	76	340.315	4	Aircraft1_10%_27.jpg	0	0.1	340.315	344.047	342.401	0
17	1	10	77	344.332	4	Aircraft2_10%_35.jpg	1	0.1	344.332	348.069	345.697	1
17	1	10	78	348.34	4	rest.jpg	n/a	n/a	348.34	352.077	352.34	n/a
17	1	10	79	352.311	4	rest.jpg	n/a	n/a	352.311	356.045	356.311	n/a
17	1	10	80	356.294	4	rest.jpg	n/a	n/a	356.294	360.029	360.294	n/a
17	1	11	81	360.297	4	Aircraft1_90%_32.jpg	0	0.9	360.297	364.027	363.185	0
17	1	11	82	364.294	4	Aircraft1_90%_49.jpg	0	0.9	364.294	368.029	368.294	0
17	1	11	83	368.315	4	Aircraft2_90%_22.jpg	1	0.9	368.315	372.047	368.513	1
17	1	11	84	372.329	4	Aircraft1_90%_34.jpg	0	0.9	372.329	376.066	374.808	0
17	1	11	85	376.351	4	Aircraft1_90%_14.jpg	0	0.9	376.351	380.08	379.224	0
17	1	11	86	380.363	4	rest.jpg	n/a	n/a	380.363	384.102	384.363	n/a
17	1	11	87	384.35	4	rest.jpg	n/a	n/a	384.35	388.082	388.35	n/a
17	1	11	88	388.326	4	rest.jpg	n/a	n/a	388.326	392.062	392.326	n/a
17	1	12	89	392.33	4	Aircraft2_70%_24.jpg	1	0.75	392.33	396.066	394.361	1
17	1	12	90	396.335	4	Aircraft2_70%_2.jpg	1	0.75	396.335	400.065	398.488	1
17	1	12	91	400.337	4	Aircraft2_70%_43.jpg	1	0.75	400.337	404.072	402.412	1
17	1	12	92	404.353	4	Aircraft2_70%_46.jpg	1	0.75	404.353	408.089	406.939	1
17	1	12	93	408.377	4	Aircraft1_70%_42.jpg	0	0.75	408.377	412.111	410.604	0
17	1	12	94	412.379	4	rest.jpg	n/a	n/a	412.379	416.117	416.379	n/a
17	1	12	95	416.368	4	rest.jpg	n/a	n/a	416.368	420.105	420.368	n/a
17	1	12	96	420.339	4	rest.jpg	n/a	n/a	420.339	424.075	424.339	n/a
17	1	13	97	424.35	4	Aircraft2_10%_30.jpg	1	0.1	424.35	428.083	426.435	1
17	1	13	98	428.352	4	Aircraft2_10%_27.jpg	1	0.1	428.352	432.085	429.445	1
17	1	13	99	432.374	4	Aircraft2_10%_50.jpg	1	0.1	432.374	436.108	433.261	1
17	1	13	100	436.394	4	Aircraft2_10%_29.jpg	1	0.1	436.394	440.131	437.012	1
17	1	13	101	440.419	4	Aircraft1_10%_6.jpg	0	0.1	440.419	444.155	441.662	0
17	1	13	102	444.44	4	rest.jpg	n/a	n/a	444.44	448.174	448.44	n/a
17	1	13	103	448.406	4	rest.jpg	n/a	n/a	448.406	452.141	452.406	n/a
17	1	13	104	452.387	4	rest.jpg	n/a	n/a	452.387	456.122	456.387	n/a
17	1	14	105	456.389	4	Aircraft2_90%_18.jpg	1	0.9	456.389	460.121	458.345	1
17	1	14	106	460.406	4	Aircraft1_90%_29.jpg	0	0.9	460.406	464.139	462.094	0
17	1	14	107	464.407	4	Aircraft2_90%_1.jpg	1	0.9	464.407	468.139	466.146	1
17	1	14	108	468.422	4	Aircraft1_90%_26.jpg	0	0.9	468.422	472.157	470.272	0
17	1	14	109	472.439	4	Aircraft2_90%_34.jpg	1	0.9	472.439	476.177	474.081	1
17	1	14	110	476.465	4	rest.jpg	n/a	n/a	476.465	480.202	480.465	n/a
17	1	14	111	480.449	4	rest.jpg	n/a	n/a	480.449	484.185	484.449	n/a
17	1	14	112	484.417	4	rest.jpg	n/a	n/a	484.417	488.149	488.417	n/a
17	1	15	113	488.438	4	Aircraft1_70%_17.jpg	0	0.75	488.438	492.168	490.504	0
17	1	15	114	492.457	4	Aircraft2_70%_42.jpg	1	0.75	492.457	496.189	494.812	1
17	1	15	115	496.461	4	Aircraft2_70%_44.jpg	1	0.75	496.461	500.192	498.535	1
17	1	15	116	500.479	4	Aircraft1_70%_10.jpg	0	0.75	500.479	504.214	502.167	0
17	1	15	117	504.504	4	Aircraft2_70%_25.jpg	1	0.75	504.504	508.234	506.232	1
17	1	15	118	508.52	4	rest.jpg	n/a	n/a	508.52	512.253	512.52	n/a
17	1	15	119	512.501	4	rest.jpg	n/a	n/a	512.501	516.232	516.501	n/a
17	1	15	120	516.465	4	rest.jpg	n/a	n/a	516.465	520.202	520.465	n/a
17	1	16	121	520.475	4	Aircraft1_10%_38.jpg	0	0.1	520.475	524.208	521.815	0
17	1	16	122	524.498	4	Aircraft2_10%_21.jpg	1	0.1	524.498	528.23	525.392	1
17	1	16	123	528.523	4	Aircraft1_10%_16.jpg	0	0.1	528.523	532.255	529.774	0
17	1	16	124	532.529	4	Aircraft1_10%_46.jpg	0	0.1	532.529	536.266	533.771	0
17	1	16	125	536.554	4	Aircraft2_10%_40.jpg	1	0.1	536.554	540.29	538.062	1
17	1	16	126	540.576	4	rest.jpg	n/a	n/a	540.576	544.311	544.576	n/a
17	1	16	127	544.558	4	rest.jpg	n/a	n/a	544.558	548.294	548.558	n/a
17	1	16	128	548.543	4	rest.jpg	n/a	n/a	548.543	552.273	552.543	n/a
17	1	17	129	552.556	4	Aircraft2_90%_4.jpg	1	0.9	552.556	556.288	554.149	1
17	1	17	130	556.564	4	Aircraft1_90%_43.jpg	0	0.9	556.564	560.3	558.121	0
17	1	17	131	560.566	4	Aircraft1_90%_9.jpg	0	0.9	560.566	564.296	562.663	0
17	1	17	132	564.563	4	Aircraft1_90%_11.jpg	0	0.9	564.563	568.293	567.153	0
17	1	17	133	568.576	4	Aircraft1_90%_50.jpg	0	0.9	568.576	572.309	571.864	0
17	1	17	134	572.579	4	rest.jpg	n/a	n/a	572.579	576.314	576.579	n/a
17	1	17	135	576.563	4	rest.jpg	n/a	n/a	576.563	580.295	580.563	n/a
17	1	17	136	580.547	4	rest.jpg	n/a	n/a	580.547	584.276	584.547	n/a
17	1	18	137	584.56	4	Aircraft1_70%_12.jpg	0	0.75	584.56	588.29	585.913	0
17	1	18	138	588.576	4	Aircraft2_70%_32.jpg	1	0.75	588.576	592.308	589.764	1
17	1	18	139	592.574	4	Aircraft2_70%_48.jpg	1	0.75	592.574	596.309	593.947	1
17	1	18	140	596.582	4	Aircraft1_70%_19.jpg	0	0.75	596.582	600.314	598.287	0
17	1	18	141	600.587	4	Aircraft1_70%_33.jpg	0	0.75	600.587	604.325	602.701	0
17	1	18	142	604.595	4	rest.jpg	n/a	n/a	604.595	608.332	608.595	n/a
17	1	18	143	608.566	4	rest.jpg	n/a	n/a	608.566	612.302	612.566	n/a
17	1	18	144	612.536	4	rest.jpg	n/a	n/a	612.536	616.273	616.536	n/a
17	1	19	145	616.564	4	Aircraft2_10%_23.jpg	1	0.1	616.564	620.299	618.864	1
17	1	19	146	620.585	4	Aircraft1_10%_28.jpg	0	0.1	620.585	624.315	621.46	0
17	1	19	147	624.603	4	Aircraft2_10%_13.jpg	1	0.1	624.603	628.338	625.515	1
17	1	19	148	628.624	4	Aircraft1_10%_45.jpg	0	0.1	628.624	632.357	629.636	0
17	1	19	149	632.649	4	Aircraft1_10%_37.jpg	0	0.1	632.649	636.381	633.713	0
17	1	19	150	636.666	4	rest.jpg	n/a	n/a	636.666	640.396	640.666	n/a
17	1	19	151	640.644	4	rest.jpg	n/a	n/a	640.644	644.381	644.644	n/a
17	1	19	152	644.631	4	rest.jpg	n/a	n/a	644.631	648.361	648.631	n/a
17	1	20	153	648.641	4	Aircraft2_90%_33.jpg	1	0.9	648.641	652.376	651.063	1
17	1	20	154	652.653	4	Aircraft2_90%_38.jpg	1	0.9	652.653	656.383	654.64	1
17	1	20	155	656.65	4	Aircraft1_90%_30.jpg	0	0.9	656.65	660.382	658.448	0
17	1	20	156	660.66	4	Aircraft1_90%_41.jpg	0	0.9	660.66	664.397	663.008	0
17	1	20	157	664.664	4	Aircraft1_90%_18.jpg	0	0.9	664.664	668.4	667.739	0
17	1	20	158	668.684	4	rest.jpg	n/a	n/a	668.684	672.422	672.684	n/a
17	1	20	159	672.656	4	rest.jpg	n/a	n/a	672.656	676.389	676.656	n/a
17	1	20	160	676.641	4	rest.jpg	n/a	n/a	676.641	680.371	680.641	n/a
17	1	21	161	680.644	4	Aircraft2_70%_9.jpg	1	0.75	680.644	684.374	682.171	1
17	1	21	162	684.644	4	Aircraft2_70%_6.jpg	1	0.75	684.644	688.374	685.788	1
17	1	21	163	688.659	4	Aircraft1_70%_23.jpg	0	0.75	688.659	692.389	691.021	0
17	1	21	164	692.66	4	Aircraft1_70%_21.jpg	0	0.75	692.66	696.39	693.934	0
17	1	21	165	696.666	4	Aircraft2_70%_36.jpg	1	0.75	696.666	700.396	698.687	1
17	1	21	166	700.68	4	rest.jpg	n/a	n/a	700.68	704.414	704.68	n/a
17	1	21	167	704.648	4	rest.jpg	n/a	n/a	704.648	708.38	708.648	n/a
17	1	21	168	708.628	4	rest.jpg	n/a	n/a	708.628	712.364	712.628	n/a
17	1	22	169	712.655	4	Aircraft2_10%_41.jpg	1	0.1	712.655	716.39	713.842	1
17	1	22	170	716.678	4	Aircraft1_10%_22.jpg	0	0.1	716.678	720.41	717.442	0
17	1	22	171	720.691	4	Aircraft1_10%_44.jpg	0	0.1	720.691	724.421	721.588	0
17	1	22	172	724.713	4	Aircraft1_10%_1.jpg	0	0.1	724.713	728.444	726.087	0
17	1	22	173	728.729	4	Aircraft2_10%_37.jpg	1	0.1	728.729	732.461	730.369	1
17	1	22	174	732.747	4	rest.jpg	n/a	n/a	732.747	736.479	736.747	n/a
17	1	22	175	736.728	4	rest.jpg	n/a	n/a	736.728	740.464	740.728	n/a
17	1	22	176	740.714	4	rest.jpg	n/a	n/a	740.714	744.444	744.714	n/a
17	1	23	177	744.724	4	Aircraft2_90%_31.jpg	1	0.9	744.724	748.454	746.43	1
17	1	23	178	748.721	4	Aircraft1_90%_4.jpg	0	0.9	748.721	752.457	751.407	0
17	1	23	179	752.738	4	Aircraft2_90%_20.jpg	1	0.9	752.738	756.47	755.199	1
17	1	23	180	756.747	4	Aircraft1_90%_7.jpg	0	0.9	756.747	760.482	760.059	0
17	1	23	181	760.765	4	Aircraft1_90%_8.jpg	0	0.9	760.765	764.496	762.703	0
17	1	23	182	764.783	4	rest.jpg	n/a	n/a	764.783	768.515	768.783	n/a
17	1	23	183	768.751	4	rest.jpg	n/a	n/a	768.751	772.486	772.751	n/a
17	1	23	184	772.733	4	rest.jpg	n/a	n/a	772.733	776.463	776.733	n/a
17	1	24	185	776.736	4	Aircraft2_70%_14.jpg	1	0.75	776.736	780.468	778.234	1
17	1	24	186	780.753	4	Aircraft2_70%_5.jpg	1	0.75	780.753	784.484	781.981	1
17	1	24	187	784.757	4	Aircraft2_70%_15.jpg	1	0.75	784.757	788.491	786.513	1
17	1	24	188	788.777	4	Aircraft2_70%_19.jpg	1	0.75	788.777	792.507	790.657	1
17	1	24	189	792.778	4	Aircraft1_70%_31.jpg	0	0.75	792.778	796.508	794.821	0
17	1	24	190	796.794	4	rest.jpg	n/a	n/a	796.794	800.529	800.794	n/a
17	1	24	191	800.78	4	rest.jpg	n/a	n/a	800.78	804.515	804.78	n/a
17	1	24	192	804.749	4	rest.jpg	n/a	n/a	804.749	808.481	808.749	n/a
17	1	25	193	808.771	4	Aircraft2_10%_9.jpg	1	0.1	808.771	812.507	809.778	1
17	1	25	194	812.79	4	Aircraft2_10%_6.jpg	1	0.1	812.79	816.52	814.07	1
17	1	25	195	816.795	4	Aircraft1_10%_23.jpg	0	0.1	816.795	820.527	818.091	0
17	1	25	196	820.82	4	Aircraft1_10%_21.jpg	0	0.1	820.82	824.551	821.657	0
17	1	25	197	824.839	4	Aircraft2_10%_36.jpg	1	0.1	824.839	828.569	825.766	1
17	1	25	198	828.859	4	rest.jpg	n/a	n/a	828.859	832.59	832.859	n/a
17	1	25	199	832.824	4	rest.jpg	n/a	n/a	832.824	836.556	836.824	n/a
17	1	25	200	836.806	4	rest.jpg	n/a	n/a	836.806	840.536	840.806	n/a
17	1	26	201	840.803	4	Aircraft2_90%_24.jpg	1	0.9	840.803	844.533	842.597	1
17	1	26	202	844.818	4	Aircraft2_90%_2.jpg	1	0.9	844.818	848.553	847.207	1
17	1	26	203	848.841	4	Aircraft2_90%_43.jpg	1	0.9	848.841	852.574	850.534	1
17	1	26	204	852.859	4	Aircraft2_90%_46.jpg	1	0.9	852.859	856.595	854.651	1
17	1	26	205	856.877	4	Aircraft1_90%_42.jpg	0	0.9	856.877	860.613	859.628	0
17	1	26	206	860.9	4	rest.jpg	n/a	n/a	860.9	864.635	864.9	n/a
17	1	26	207	864.884	4	rest.jpg	n/a	n/a	864.884	868.617	868.884	n/a
17	1	26	208	868.867	4	rest.jpg	n/a	n/a	868.867	872.604	872.867	n/a
17	1	27	209	872.878	4	Aircraft1_70%_3.jpg	0	0.75	872.878	876.608	874.322	0
17	1	27	210	876.898	4	Aircraft2_70%_28.jpg	1	0.75	876.898	880.628	878.345	1
17	1	27	211	880.918	4	Aircraft1_70%_24.jpg	0	0.75	880.918	884.653	882.518	0
17	1	27	212	884.926	4	Aircraft2_70%_39.jpg	1	0.75	884.926	888.656	886.207	1
17	1	27	213	888.952	4	Aircraft2_70%_8.jpg	1	0.75	888.952	892.683	890.116	1
17	1	27	214	892.951	4	rest.jpg	n/a	n/a	892.951	896.686	896.951	n/a
17	1	27	215	896.93	4	rest.jpg	n/a	n/a	896.93	900.667	900.93	n/a
17	1	27	216	900.93	4	rest.jpg	n/a	n/a	900.93	904.665	904.93	n/a
17	1	28	217	904.936	4	Aircraft1_10%_12.jpg	0	0.1	904.936	908.668	906.078	0
17	1	28	218	908.961	4	Aircraft2_10%_32.jpg	1	0.1	908.961	912.692	910.048	1
17	1	28	219	912.984	4	Aircraft2_10%_48.jpg	1	0.1	912.984	916.72	913.996	1
17	1	28	220	917.002	4	Aircraft1_10%_19.jpg	0	0.1	917.002	920.739	917.975	0
17	1	28	221	921.031	4	Aircraft1_10%_33.jpg	0	0.1	921.031	924.766	921.882	0
17	1	28	222	925.044	4	rest.jpg	n/a	n/a	925.044	928.774	929.044	n/a
17	1	28	223	929.006	4	rest.jpg	n/a	n/a	929.006	932.741	933.006	n/a
17	1	28	224	932.987	4	rest.jpg	n/a	n/a	932.987	936.722	936.987	n/a
17	1	29	225	937.005	4	Aircraft1_90%_17.jpg	0	0.9	937.005	940.735	938.902	0
17	1	29	226	941.01	4	Aircraft2_90%_42.jpg	1	0.9	941.01	944.745	944.019	1
17	1	29	227	945.027	4	Aircraft2_90%_44.jpg	1	0.9	945.027	948.759	947.369	1
17	1	29	228	949.04	4	Aircraft1_90%_10.jpg	0	0.9	949.04	952.773	950.829	0
17	1	29	229	953.04	4	Aircraft2_90%_25.jpg	1	0.9	953.04	956.775	955.431	1
17	1	29	230	957.045	4	rest.jpg	n/a	n/a	957.045	960.78	961.045	n/a
17	1	29	231	961.03	4	rest.jpg	n/a	n/a	961.03	964.762	965.03	n/a
17	1	29	232	965.012	4	rest.jpg	n/a	n/a	965.012	968.742	969.012	n/a
17	1	30	233	969.025	4	Aircraft1_70%_25.jpg	0	0.75	969.025	972.761	970.297	0
17	1	30	234	973.041	4	Aircraft2_70%_49.jpg	1	0.75	973.041	976.771	974.74	1
17	1	30	235	977.039	4	Aircraft2_70%_10.jpg	1	0.75	977.039	980.769	978.208	1
17	1	30	236	981.061	4	Aircraft2_70%_12.jpg	1	0.75	981.061	984.793	982.106	1
17	1	30	237	985.08	4	Aircraft2_70%_7.jpg	1	0.75	985.08	988.817	987.788	1
17	1	30	238	989.1	4	rest.jpg	n/a	n/a	989.1	992.832	993.1	n/a
17	1	30	239	993.092	4	rest.jpg	n/a	n/a	993.092	996.822	997.092	n/a
17	1	30	240	997.066	4	rest.jpg	n/a	n/a	997.066	1000.802	1001.066	n/a
