sub	run	block	trail	oneset	duration	stim_file	stim_lable	level of occlusion	stim_started	stim_stopped	key_time	key_fix
17	2	1	1	39.99	4	Aircraft1_10%_17.jpg	0	0.1	39.99	43.708	41.348	0
17	2	1	2	43.984	4	Aircraft2_10%_42.jpg	1	0.1	43.984	47.709	44.703	1
17	2	1	3	47.992	4	Aircraft2_10%_44.jpg	1	0.1	47.992	51.716	48.739	1
17	2	1	4	51.991	4	Aircraft1_10%_10.jpg	0	0.1	51.991	55.715	52.868	0
17	2	1	5	55.985	4	Aircraft2_10%_25.jpg	1	0.1	55.985	59.711	56.786	1
17	2	1	6	59.995	4	rest.jpg	n/a	n/a	59.995	63.715	63.995	n/a
17	2	1	7	63.962	4	rest.jpg	n/a	n/a	63.962	67.682	67.962	n/a
17	2	1	8	67.914	4	rest.jpg	n/a	n/a	67.914	71.636	71.914	n/a
17	2	2	9	71.918	4	Aircraft1_90%_12.jpg	0	0.9	71.918	75.635	74.059	0
17	2	2	10	75.903	4	Aircraft2_90%_32.jpg	1	0.9	75.903	79.628	78.206	1
17	2	2	11	79.91	4	Aircraft2_90%_48.jpg	1	0.9	79.91	83.628	82.201	1
17	2	2	12	83.913	4	Aircraft1_90%_19.jpg	0	0.9	83.913	87.636	86.925	0
17	2	2	13	87.905	4	Aircraft1_90%_33.jpg	0	0.9	87.905	91.622	90.447	0
17	2	2	14	91.911	4	rest.jpg	n/a	n/a	91.911	95.633	95.911	n/a
17	2	2	15	95.882	4	rest.jpg	n/a	n/a	95.882	99.604	99.882	n/a
17	2	2	16	99.851	4	rest.jpg	n/a	n/a	99.851	103.57	103.851	n/a
17	2	3	17	103.84	4	Aircraft2_70%_33.jpg	1	0.75	103.84	107.562	105.584	1
17	2	3	18	107.845	4	Aircraft2_70%_38.jpg	1	0.75	107.845	111.564	110.018	1
17	2	3	19	111.854	4	Aircraft1_70%_30.jpg	0	0.75	111.854	115.571	113.638	0
17	2	3	20	115.859	4	Aircraft1_70%_41.jpg	0	0.75	115.859	119.576	118.312	0
17	2	3	21	119.849	4	Aircraft1_70%_18.jpg	0	0.75	119.849	123.574	121.703	0
17	2	3	22	123.844	4	rest.jpg	n/a	n/a	123.844	127.568	127.844	n/a
17	2	3	23	127.814	4	rest.jpg	n/a	n/a	127.814	131.536	131.814	n/a
17	2	3	24	131.786	4	rest.jpg	n/a	n/a	131.786	135.502	135.786	n/a
17	2	4	25	135.774	4	Aircraft2_10%_24.jpg	1	0.1	135.774	139.491	137.37	1
17	2	4	26	139.783	4	Aircraft2_10%_2.jpg	1	0.1	139.783	143.5	140.575	1
17	2	4	27	143.773	4	Aircraft2_10%_43.jpg	1	0.1	143.773	147.498	144.511	1
17	2	4	28	147.773	4	Aircraft2_10%_46.jpg	1	0.1	147.773	151.497	148.505	1
17	2	4	29	151.767	4	Aircraft1_10%_42.jpg	0	0.1	151.767	155.49	152.576	0
17	2	4	30	155.777	4	rest.jpg	n/a	n/a	155.777	159.5	159.777	n/a
17	2	4	31	159.734	4	rest.jpg	n/a	n/a	159.734	163.453	163.734	n/a
17	2	4	32	163.697	4	rest.jpg	n/a	n/a	163.697	167.413	167.697	n/a
17	2	5	33	167.69	4	Aircraft2_90%_9.jpg	1	0.9	167.69	171.407	169.888	1
17	2	5	34	171.691	4	Aircraft2_90%_6.jpg	1	0.9	171.691	175.411	174.279	1
17	2	5	35	175.681	4	Aircraft1_90%_23.jpg	0	0.9	175.681	179.403	178.398	0
17	2	5	36	179.685	4	Aircraft1_90%_21.jpg	0	0.9	179.685	183.404	182.353	0
17	2	5	37	183.688	4	Aircraft2_90%_36.jpg	1	0.9	183.688	187.407	185.94	1
17	2	5	38	187.68	4	rest.jpg	n/a	n/a	187.68	191.399	191.68	n/a
17	2	5	39	191.631	4	rest.jpg	n/a	n/a	191.631	195.348	195.631	n/a
17	2	5	40	195.598	4	rest.jpg	n/a	n/a	195.598	199.318	199.598	n/a
17	2	6	41	199.601	4	Aircraft2_70%_31.jpg	1	0.75	199.601	203.317	201.013	1
17	2	6	42	203.6	4	Aircraft1_70%_4.jpg	0	0.75	203.6	207.322	205.868	0
17	2	6	43	207.605	4	Aircraft2_70%_20.jpg	1	0.75	207.605	211.322	211.069	1
17	2	6	44	211.593	4	Aircraft1_70%_7.jpg	0	0.75	211.593	215.312	212.879	0
17	2	6	45	215.594	4	Aircraft1_70%_8.jpg	0	0.75	215.594	219.314	217.459	0
17	2	6	46	219.598	4	rest.jpg	n/a	n/a	219.598	223.317	223.598	n/a
17	2	6	47	223.549	4	rest.jpg	n/a	n/a	223.549	227.271	227.549	n/a
17	2	6	48	227.52	4	rest.jpg	n/a	n/a	227.52	231.243	231.52	n/a
17	2	7	49	231.515	4	Aircraft2_10%_31.jpg	1	0.1	231.515	235.238	232.484	1
17	2	7	50	235.506	4	Aircraft1_10%_4.jpg	0	0.1	235.506	239.228	237.187	0
17	2	7	51	239.49	4	Aircraft2_10%_20.jpg	1	0.1	239.49	243.209	239.993	1
17	2	7	52	243.476	4	Aircraft1_10%_7.jpg	0	0.1	243.476	247.193	244.262	0
17	2	7	53	247.46	4	Aircraft1_10%_8.jpg	0	0.1	247.46	251.179	248.204	0
17	2	7	54	251.443	4	rest.jpg	n/a	n/a	251.443	255.167	255.443	n/a
17	2	7	55	255.415	4	rest.jpg	n/a	n/a	255.415	259.138	259.415	n/a
17	2	7	56	259.387	4	rest.jpg	n/a	n/a	259.387	263.111	263.387	n/a
17	2	8	57	263.393	4	Aircraft2_90%_41.jpg	1	0.9	263.393	267.117	264.874	1
17	2	8	58	267.378	4	Aircraft1_90%_22.jpg	0	0.9	267.378	271.094	269.887	0
17	2	8	59	271.355	4	Aircraft1_90%_44.jpg	0	0.9	271.355	275.078	272.992	0
17	2	8	60	275.352	4	Aircraft1_90%_1.jpg	0	0.9	275.352	279.069	278.396	0
17	2	8	61	279.342	4	Aircraft2_90%_37.jpg	1	0.9	279.342	283.059	282.341	1
17	2	8	62	283.323	4	rest.jpg	n/a	n/a	283.323	287.04	287.323	n/a
17	2	8	63	287.272	4	rest.jpg	n/a	n/a	287.272	290.994	291.272	n/a
17	2	8	64	291.243	4	rest.jpg	n/a	n/a	291.243	294.96	295.243	n/a
17	2	9	65	295.244	4	Aircraft2_70%_41.jpg	1	0.75	295.244	298.967	297.091	1
17	2	9	66	299.253	4	Aircraft1_70%_22.jpg	0	0.75	299.253	302.97	302.392	0
17	2	9	67	303.236	4	Aircraft1_70%_44.jpg	0	0.75	303.236	306.958	306.609	0
17	2	9	68	307.223	4	Aircraft1_70%_1.jpg	0	0.75	307.223	310.943	309.772	0
17	2	9	69	311.208	4	Aircraft2_70%_37.jpg	1	0.75	311.208	314.925	315.208	1
17	2	9	70	315.208	4	rest.jpg	n/a	n/a	315.208	318.928	319.208	n/a
17	2	9	71	319.16	4	rest.jpg	n/a	n/a	319.16	322.876	323.16	n/a
17	2	9	72	323.126	4	rest.jpg	n/a	n/a	323.126	326.843	327.126	n/a
17	2	10	73	327.111	4	Aircraft2_10%_33.jpg	1	0.1	327.111	330.83	328.136	1
17	2	10	74	331.118	4	Aircraft2_10%_38.jpg	1	0.1	331.118	334.835	331.822	1
17	2	10	75	335.103	4	Aircraft1_10%_30.jpg	0	0.1	335.103	338.821	336.017	0
17	2	10	76	339.103	4	Aircraft1_10%_41.jpg	0	0.1	339.103	342.827	339.861	0
17	2	10	77	343.092	4	Aircraft1_10%_18.jpg	0	0.1	343.092	346.815	343.804	0
17	2	10	78	347.099	4	rest.jpg	n/a	n/a	347.099	350.816	351.099	n/a
17	2	10	79	351.063	4	rest.jpg	n/a	n/a	351.063	354.781	355.063	n/a
17	2	10	80	355.027	4	rest.jpg	n/a	n/a	355.027	358.746	359.027	n/a
17	2	11	81	359.008	4	Aircraft2_90%_23.jpg	1	0.9	359.008	362.726	360.677	1
17	2	11	82	362.987	4	Aircraft1_90%_28.jpg	0	0.9	362.987	366.71	364.848	0
17	2	11	83	366.971	4	Aircraft2_90%_13.jpg	1	0.9	366.971	370.691	369.279	1
17	2	11	84	370.972	4	Aircraft1_90%_45.jpg	0	0.9	370.972	374.69	372.913	0
17	2	11	85	374.966	4	Aircraft1_90%_37.jpg	0	0.9	374.966	378.689	376.708	0
17	2	11	86	378.968	4	rest.jpg	n/a	n/a	378.968	382.691	382.968	n/a
17	2	11	87	382.94	4	rest.jpg	n/a	n/a	382.94	386.662	386.94	n/a
17	2	11	88	386.909	4	rest.jpg	n/a	n/a	386.909	390.632	390.909	n/a
17	2	12	89	390.912	4	Aircraft1_70%_2.jpg	0	0.75	390.912	394.63	392.06	0
17	2	12	90	394.899	4	Aircraft1_70%_39.jpg	0	0.75	394.899	398.622	397.025	0
17	2	12	91	398.889	4	Aircraft2_70%_26.jpg	1	0.75	398.889	402.609	401.19	1
17	2	12	92	402.877	4	Aircraft1_70%_15.jpg	0	0.75	402.877	406.593	405.26	0
17	2	12	93	406.858	4	Aircraft2_70%_16.jpg	1	0.75	406.858	410.577	409.069	1
17	2	12	94	410.858	4	rest.jpg	n/a	n/a	410.858	414.58	414.858	n/a
17	2	12	95	414.828	4	rest.jpg	n/a	n/a	414.828	418.551	418.828	n/a
17	2	12	96	418.802	4	rest.jpg	n/a	n/a	418.802	422.52	422.802	n/a
17	2	13	97	422.789	4	Aircraft2_10%_4.jpg	1	0.1	422.789	426.508	424.331	1
17	2	13	98	426.795	4	Aircraft1_10%_43.jpg	0	0.1	426.795	430.518	427.681	0
17	2	13	99	430.786	4	Aircraft1_10%_9.jpg	0	0.1	430.786	434.506	431.746	0
17	2	13	100	434.794	4	Aircraft1_10%_11.jpg	0	0.1	434.794	438.519	435.639	0
17	2	13	101	438.801	4	Aircraft1_10%_50.jpg	0	0.1	438.801	442.523	439.557	0
17	2	13	102	442.805	4	rest.jpg	n/a	n/a	442.805	446.522	446.805	n/a
17	2	13	103	446.767	4	rest.jpg	n/a	n/a	446.767	450.486	450.767	n/a
17	2	13	104	450.735	4	rest.jpg	n/a	n/a	450.735	454.452	454.735	n/a
17	2	14	105	454.731	4	Aircraft1_90%_38.jpg	0	0.9	454.731	458.448	456.828	0
17	2	14	106	458.729	4	Aircraft2_90%_21.jpg	1	0.9	458.729	462.446	461.372	1
17	2	14	107	462.707	4	Aircraft1_90%_16.jpg	0	0.9	462.707	466.424	465.319	0
17	2	14	108	466.706	4	Aircraft1_90%_46.jpg	0	0.9	466.706	470.429	469.239	0
17	2	14	109	470.704	4	Aircraft2_90%_40.jpg	1	0.9	470.704	474.427	473.555	1
17	2	14	110	474.712	4	rest.jpg	n/a	n/a	474.712	478.434	478.712	n/a
17	2	14	111	478.664	4	rest.jpg	n/a	n/a	478.664	482.384	482.664	n/a
17	2	14	112	482.637	4	rest.jpg	n/a	n/a	482.637	486.357	486.637	n/a
17	2	15	113	486.635	4	Aircraft1_70%_36.jpg	0	0.75	486.635	490.356	488.27	0
17	2	15	114	490.645	4	Aircraft1_70%_35.jpg	0	0.75	490.645	494.362	492.612	0
17	2	15	115	494.628	4	Aircraft2_70%_3.jpg	1	0.75	494.628	498.351	496.219	1
17	2	15	116	498.632	4	Aircraft1_70%_5.jpg	0	0.75	498.632	502.351	500.554	0
17	2	15	117	502.631	4	Aircraft1_70%_48.jpg	0	0.75	502.631	506.35	505.462	0
17	2	15	118	506.634	4	rest.jpg	n/a	n/a	506.634	510.352	510.634	n/a
17	2	15	119	510.584	4	rest.jpg	n/a	n/a	510.584	514.31	514.584	n/a
17	2	15	120	514.544	4	rest.jpg	n/a	n/a	514.544	518.261	518.544	n/a
17	2	16	121	518.545	4	Aircraft2_10%_18.jpg	1	0.1	518.545	522.268	519.716	1
17	2	16	122	522.551	4	Aircraft1_10%_29.jpg	0	0.1	522.551	526.27	523.511	0
17	2	16	123	526.54	4	Aircraft2_10%_1.jpg	1	0.1	526.54	530.262	527.328	1
17	2	16	124	530.554	4	Aircraft1_10%_26.jpg	0	0.1	530.554	534.276	531.405	0
17	2	16	125	534.561	4	Aircraft2_10%_34.jpg	1	0.1	534.561	538.278	535.585	1
17	2	16	126	538.548	4	rest.jpg	n/a	n/a	538.548	542.273	542.548	n/a
17	2	16	127	542.521	4	rest.jpg	n/a	n/a	542.521	546.237	546.521	n/a
17	2	16	128	546.472	4	rest.jpg	n/a	n/a	546.472	550.195	550.472	n/a
17	2	17	129	550.475	4	Aircraft2_90%_30.jpg	1	0.9	550.475	554.198	551.902	1
17	2	17	130	554.468	4	Aircraft2_90%_27.jpg	1	0.9	554.468	558.19	557.128	1
17	2	17	131	558.457	4	Aircraft2_90%_50.jpg	1	0.9	558.457	562.174	561.329	1
17	2	17	132	562.442	4	Aircraft2_90%_29.jpg	1	0.9	562.442	566.162	564.413	1
17	2	17	133	566.446	4	Aircraft1_90%_6.jpg	0	0.9	566.446	570.164	569.702	0
17	2	17	134	570.454	4	rest.jpg	n/a	n/a	570.454	574.178	574.454	n/a
17	2	17	135	574.428	4	rest.jpg	n/a	n/a	574.428	578.144	578.428	n/a
17	2	17	136	578.391	4	rest.jpg	n/a	n/a	578.391	582.11	582.391	n/a
17	2	18	137	582.394	4	Aircraft2_70%_17.jpg	1	0.75	582.394	586.118	583.458	1
17	2	18	138	586.387	4	Aircraft2_70%_11.jpg	1	0.75	586.387	590.104	587.281	1
17	2	18	139	590.39	4	Aircraft1_70%_20.jpg	0	0.75	590.39	594.112	591.652	0
17	2	18	140	594.384	4	Aircraft2_70%_47.jpg	1	0.75	594.384	598.101	598.384	1
17	2	18	141	598.373	4	Aircraft2_70%_45.jpg	1	0.75	598.373	602.096	601.869	1
17	2	18	142	602.379	4	rest.jpg	n/a	n/a	602.379	606.096	606.379	n/a
17	2	18	143	606.346	4	rest.jpg	n/a	n/a	606.346	610.07	610.346	n/a
17	2	18	144	610.306	4	rest.jpg	n/a	n/a	610.306	614.022	614.306	n/a
17	2	19	145	614.296	4	Aircraft1_10%_32.jpg	0	0.1	614.296	618.019	615.114	0
17	2	19	146	618.31	4	Aircraft1_10%_49.jpg	0	0.1	618.31	622.029	619.138	0
17	2	19	147	622.318	4	Aircraft2_10%_22.jpg	1	0.1	622.318	626.041	623.155	1
17	2	19	148	626.328	4	Aircraft1_10%_34.jpg	0	0.1	626.328	630.047	627.253	0
17	2	19	149	630.322	4	Aircraft1_10%_14.jpg	0	0.1	630.322	634.04	631.456	0
17	2	19	150	634.326	4	rest.jpg	n/a	n/a	634.326	638.045	638.326	n/a
17	2	19	151	638.295	4	rest.jpg	n/a	n/a	638.295	642.017	642.295	n/a
17	2	19	152	642.249	4	rest.jpg	n/a	n/a	642.249	645.966	646.249	n/a
17	2	20	153	646.252	4	Aircraft1_90%_1.jpg	0	0.9	646.252	649.97	647.899	0
17	2	20	154	650.24	4	Aircraft1_90%_47.jpg	0	0.9	650.24	653.957	653.596	0
17	2	20	155	654.225	4	Aircraft1_90%_40.jpg	0	0.9	654.225	657.944	655.983	0
17	2	20	156	658.23	4	Aircraft1_90%_27.jpg	0	0.9	658.23	661.953	660.741	0
17	2	20	157	662.237	4	Aircraft2_90%_35.jpg	1	0.9	662.237	665.957	663.705	1
17	2	20	158	666.229	4	rest.jpg	n/a	n/a	666.229	669.949	670.229	n/a
17	2	20	159	670.184	4	rest.jpg	n/a	n/a	670.184	673.904	674.184	n/a
17	2	20	160	674.159	4	rest.jpg	n/a	n/a	674.159	677.876	678.159	n/a
17	2	21	161	678.151	4	Aircraft2_70%_23.jpg	1	0.75	678.151	681.874	679.504	1
17	2	21	162	682.168	4	Aircraft1_70%_28.jpg	0	0.75	682.168	685.892	683.46	0
17	2	21	163	686.165	4	Aircraft2_70%_13.jpg	1	0.75	686.165	689.883	687.733	1
17	2	21	164	690.177	4	Aircraft1_70%_45.jpg	0	0.75	690.177	693.899	694.177	0
17	2	21	165	694.173	4	Aircraft1_70%_37.jpg	0	0.75	694.173	697.89	695.475	0
17	2	21	166	698.161	4	rest.jpg	n/a	n/a	698.161	701.883	702.161	n/a
17	2	21	167	702.139	4	rest.jpg	n/a	n/a	702.139	705.863	706.139	n/a
17	2	21	168	706.109	4	rest.jpg	n/a	n/a	706.109	709.827	710.109	n/a
17	2	22	169	710.115	4	Aircraft1_10%_25.jpg	0	0.1	710.115	713.834	710.87	0
17	2	22	170	714.127	4	Aircraft2_10%_49.jpg	1	0.1	714.127	717.847	714.715	1
17	2	22	171	718.14	4	Aircraft2_10%_10.jpg	1	0.1	718.14	721.865	719.075	1
17	2	22	172	722.154	4	Aircraft2_10%_12.jpg	1	0.1	722.154	725.876	723.186	1
17	2	22	173	726.147	4	Aircraft2_10%_7.jpg	1	0.1	726.147	729.87	727.1	1
17	2	22	174	730.142	4	rest.jpg	n/a	n/a	730.142	733.859	734.142	n/a
17	2	22	175	734.111	4	rest.jpg	n/a	n/a	734.111	737.834	738.111	n/a
17	2	22	176	738.088	4	rest.jpg	n/a	n/a	738.088	741.812	742.088	n/a
17	2	23	177	742.098	4	Aircraft2_90%_17.jpg	1	0.9	742.098	745.818	744.2	1
17	2	23	178	746.101	4	Aircraft2_90%_11.jpg	1	0.9	746.101	749.824	748.176	1
17	2	23	179	750.093	4	Aircraft1_90%_20.jpg	0	0.9	750.093	753.812	753.417	0
17	2	23	180	754.098	4	Aircraft2_90%_47.jpg	1	0.9	754.098	757.817	755.949	1
17	2	23	181	758.103	4	Aircraft2_90%_45.jpg	1	0.9	758.103	761.827	759.497	1
17	2	23	182	762.12	4	rest.jpg	n/a	n/a	762.12	765.837	766.12	n/a
17	2	23	183	766.09	4	rest.jpg	n/a	n/a	766.09	769.807	770.09	n/a
17	2	23	184	770.06	4	rest.jpg	n/a	n/a	770.06	773.782	774.06	n/a
17	2	24	185	774.052	4	Aircraft1_70%_38.jpg	0	0.75	774.052	777.769	775.508	0
17	2	24	186	778.055	4	Aircraft2_70%_21.jpg	1	0.75	778.055	781.779	780.198	1
17	2	24	187	782.054	4	Aircraft1_70%_16.jpg	0	0.75	782.054	785.77	783.198	0
17	2	24	188	786.064	4	Aircraft1_70%_46.jpg	0	0.75	786.064	789.786	787.853	0
17	2	24	189	790.07	4	Aircraft2_70%_40.jpg	1	0.75	790.07	793.793	792.629	1
17	2	24	190	794.072	4	rest.jpg	n/a	n/a	794.072	797.795	798.072	n/a
17	2	24	191	798.027	4	rest.jpg	n/a	n/a	798.027	801.745	802.027	n/a
17	2	24	192	801.996	4	rest.jpg	n/a	n/a	801.996	805.722	805.996	n/a
17	2	25	193	806.009	4	Aircraft1_10%_3.jpg	0	0.1	806.009	809.729	806.94	0
17	2	25	194	810.012	4	Aircraft2_10%_28.jpg	1	0.1	810.012	813.736	810.727	1
17	2	25	195	814.011	4	Aircraft1_10%_24.jpg	0	0.1	814.011	817.73	814.725	0
17	2	25	196	818.018	4	Aircraft2_10%_39.jpg	1	0.1	818.018	821.74	818.636	1
17	2	25	197	822.008	4	Aircraft2_10%_8.jpg	1	0.1	822.008	825.731	822.858	1
17	2	25	198	826.016	4	rest.jpg	n/a	n/a	826.016	829.735	830.016	n/a
17	2	25	199	829.977	4	rest.jpg	n/a	n/a	829.977	833.697	833.977	n/a
17	2	25	200	833.95	4	rest.jpg	n/a	n/a	833.95	837.675	837.95	n/a
17	2	26	201	837.956	4	Aircraft1_90%_36.jpg	0	0.9	837.956	841.675	839.208	0
17	2	26	202	841.942	4	Aircraft1_90%_35.jpg	0	0.9	841.942	845.667	844.002	0
17	2	26	203	845.934	4	Aircraft2_90%_3.jpg	1	0.9	845.934	849.653	848.026	1
17	2	26	204	849.933	4	Aircraft1_90%_5.jpg	0	0.9	849.933	853.65	852.148	0
17	2	26	205	853.931	4	Aircraft1_90%_48.jpg	0	0.9	853.931	857.655	856.67	0
17	2	26	206	857.94	4	rest.jpg	n/a	n/a	857.94	861.66	861.94	n/a
17	2	26	207	861.894	4	rest.jpg	n/a	n/a	861.894	865.613	865.894	n/a
17	2	26	208	865.851	4	rest.jpg	n/a	n/a	865.851	869.575	869.851	n/a
17	2	27	209	869.848	4	Aircraft2_70%_30.jpg	1	0.75	869.848	873.568	871.089	1
17	2	27	210	873.84	4	Aircraft2_70%_27.jpg	1	0.75	873.84	877.564	875.376	1
17	2	27	211	877.848	4	Aircraft2_70%_50.jpg	1	0.75	877.848	881.567	879.805	1
17	2	27	212	881.848	4	Aircraft2_70%_29.jpg	1	0.75	881.848	885.568	883.926	1
17	2	27	213	885.841	4	Aircraft1_70%_6.jpg	0	0.75	885.841	889.565	887.45	0
17	2	27	214	889.852	4	rest.jpg	n/a	n/a	889.852	893.574	893.852	n/a
17	2	27	215	893.821	4	rest.jpg	n/a	n/a	893.821	897.54	897.821	n/a
17	2	27	216	897.792	4	rest.jpg	n/a	n/a	897.792	901.515	901.792	n/a
17	2	28	217	901.791	4	Aircraft2_10%_14.jpg	1	0.1	901.791	905.509	902.616	1
17	2	28	218	905.791	4	Aircraft2_10%_5.jpg	1	0.1	905.791	909.511	906.458	1
17	2	28	219	909.803	4	Aircraft2_10%_15.jpg	1	0.1	909.803	913.526	910.711	1
17	2	28	220	913.796	4	Aircraft2_10%_19.jpg	1	0.1	913.796	917.513	914.505	1
17	2	28	221	917.804	4	Aircraft1_10%_31.jpg	0	0.1	917.804	921.52	918.713	0
17	2	28	222	921.805	4	rest.jpg	n/a	n/a	921.805	925.525	925.805	n/a
17	2	28	223	925.774	4	rest.jpg	n/a	n/a	925.774	929.498	929.774	n/a
17	2	28	224	929.748	4	rest.jpg	n/a	n/a	929.748	933.466	933.748	n/a
17	2	29	225	933.745	4	Aircraft1_90%_2.jpg	0	0.9	933.745	937.464	935.059	0
17	2	29	226	937.749	4	Aircraft1_90%_39.jpg	0	0.9	937.749	941.473	939.639	0
17	2	29	227	941.74	4	Aircraft2_90%_26.jpg	1	0.9	941.74	945.464	944.048	1
17	2	29	228	945.745	4	Aircraft1_90%_15.jpg	0	0.9	945.745	949.467	947.956	0
17	2	29	229	949.734	4	Aircraft2_90%_16.jpg	1	0.9	949.734	953.456	951.922	1
17	2	29	230	953.759	4	rest.jpg	n/a	n/a	953.759	957.477	957.759	n/a
17	2	29	231	957.709	4	rest.jpg	n/a	n/a	957.709	961.431	961.709	n/a
17	2	29	232	961.681	4	rest.jpg	n/a	n/a	961.681	965.403	965.681	n/a
17	2	30	233	965.693	4	Aircraft1_70%_1.jpg	0	0.75	965.693	969.417	966.757	0
17	2	30	234	969.69	4	Aircraft1_70%_47.jpg	0	0.75	969.69	973.414	970.753	0
17	2	30	235	973.688	4	Aircraft1_70%_40.jpg	0	0.75	973.688	977.411	975.463	0
17	2	30	236	977.68	4	Aircraft1_70%_27.jpg	0	0.75	977.68	981.403	978.41	0
17	2	30	237	981.687	4	Aircraft2_70%_35.jpg	1	0.75	981.687	985.406	983.313	1
17	2	30	238	985.695	4	rest.jpg	n/a	n/a	985.695	989.419	989.695	n/a
17	2	30	239	989.652	4	rest.jpg	n/a	n/a	989.652	993.371	993.652	n/a
17	2	30	240	993.619	4	rest.jpg	n/a	n/a	993.619	997.341	997.619	n/a
