onset	duration	stim_file	stim_lable	levelOfOcclusion	stim_started	stim_stopped	key_time	key_fix	stim_started_1	stim_stopped_1	key_time_1	key_fix_1
40.197	4	Aircraft1_10%_17.jpg	0	0.1	40.197	43.943	40.949	0	40.197	43.943	40.949	0
44.213	4	Aircraft2_10%_42.jpg	1	0.1	44.213	47.96	44.703	1	44.213	47.96	44.703	1
48.226	4	Aircraft2_10%_44.jpg	1	0.1	48.226	51.978	48.786	1	48.226	51.978	48.786	1
52.243	4	Aircraft1_10%_10.jpg	0	0.1	52.243	55.99	52.95	0	52.243	55.99	52.95	0
56.253	4	Aircraft2_10%_25.jpg	1	0.1	56.253	60.002	56.783	1	56.253	60.002	56.783	1
60.253	4	rest.jpg	NaN	NaN	60.253	64	64.253	NaN	60.253	64	64.253	NaN
64.242	4	rest.jpg	NaN	NaN	64.242	67.992	68.242	NaN	64.242	67.992	68.242	NaN
68.227	4	rest.jpg	NaN	NaN	68.227	71.981	72.227	NaN	68.227	71.981	72.227	NaN
72.227	4	Aircraft1_90%_12.jpg	0	0.9	72.227	75.974	73.283	0	72.227	75.974	73.283	0
76.227	4	Aircraft2_90%_32.jpg	1	0.9	76.227	79.978	77.571	1	76.227	79.978	77.571	1
80.238	4	Aircraft2_90%_48.jpg	1	0.9	80.238	83.986	81.054	1	80.238	83.986	81.054	1
84.237	4	Aircraft1_90%_19.jpg	0	0.9	84.237	87.986	85.367	0	84.237	87.986	85.367	0
88.25	4	Aircraft1_90%_33.jpg	0	0.9	88.25	91.997	89.146	0	88.25	91.997	89.146	0
92.247	4	rest.jpg	NaN	NaN	92.247	95.995	96.247	NaN	92.247	95.995	96.247	NaN
96.227	4	rest.jpg	NaN	NaN	96.227	99.977	100.227	NaN	96.227	99.977	100.227	NaN
100.237	4	rest.jpg	NaN	NaN	100.237	103.99	104.237	NaN	100.237	103.99	104.237	NaN
104.245	4	Aircraft2_70%_33.jpg	1	0.75	104.245	107.992	105.308	1	104.245	107.992	105.308	1
108.255	4	Aircraft2_70%_38.jpg	1	0.75	108.255	112.002	108.923	1	108.255	112.002	108.923	1
112.26	4	Aircraft1_70%_30.jpg	0	0.75	112.26	116.006	112.929	0	112.26	116.006	112.929	0
116.251	4	Aircraft1_70%_41.jpg	0	0.75	116.251	119.998	117.049	0	116.251	119.998	117.049	0
120.26	4	Aircraft1_70%_18.jpg	0	0.75	120.26	124.014	121.059	0	120.26	124.014	121.059	0
124.278	4	rest.jpg	NaN	NaN	124.278	128.03	128.278	NaN	124.278	128.03	128.278	NaN
128.262	4	rest.jpg	NaN	NaN	128.262	132.009	132.262	NaN	128.262	132.009	132.262	NaN
132.253	4	rest.jpg	NaN	NaN	132.253	136.002	136.253	NaN	132.253	136.002	136.253	NaN
136.249	4	Aircraft2_10%_24.jpg	1	0.1	136.249	140.002	137.12	1	136.249	140.002	137.12	1
140.261	4	Aircraft2_10%_2.jpg	1	0.1	140.261	144.014	140.665	1	140.261	144.014	140.665	1
144.26	4	Aircraft2_10%_43.jpg	1	0.1	144.26	148.016	144.763	1	144.26	148.016	144.763	1
148.28	4	Aircraft2_10%_46.jpg	1	0.1	148.28	152.031	148.732	1	148.28	152.031	148.732	1
152.284	4	Aircraft1_10%_42.jpg	0	0.1	152.284	156.033	152.767	0	152.284	156.033	152.767	0
156.291	4	rest.jpg	NaN	NaN	156.291	160.044	160.291	NaN	156.291	160.044	160.291	NaN
160.295	4	rest.jpg	NaN	NaN	160.295	164.042	164.295	NaN	160.295	164.042	164.295	NaN
164.287	4	rest.jpg	NaN	NaN	164.287	168.033	168.287	NaN	164.287	168.033	168.287	NaN
168.292	4	Aircraft2_90%_9.jpg	1	0.9	168.292	172.042	169.38	1	168.292	172.042	169.38	1
172.287	4	Aircraft2_90%_6.jpg	1	0.9	172.287	176.034	173.527	1	172.287	176.034	173.527	1
176.298	4	Aircraft1_90%_23.jpg	0	0.9	176.298	180.045	177.742	0	176.298	180.045	177.742	0
180.29	4	Aircraft1_90%_21.jpg	0	0.9	180.29	184.043	181.757	0	180.29	184.043	181.757	0
184.288	4	Aircraft2_90%_36.jpg	1	0.9	184.288	188.037	185.181	1	184.288	188.037	185.181	1
188.301	4	rest.jpg	NaN	NaN	188.301	192.048	192.301	NaN	188.301	192.048	192.301	NaN
192.28	4	rest.jpg	NaN	NaN	192.28	196.028	196.28	NaN	192.28	196.028	196.28	NaN
196.26	4	rest.jpg	NaN	NaN	196.26	200.008	200.26	NaN	196.26	200.008	200.26	NaN
200.27	4	Aircraft2_70%_31.jpg	1	0.75	200.27	204.018	201.146	1	200.27	204.018	201.146	1
204.264	4	Aircraft1_70%_4.jpg	0	0.75	204.264	208.019	204.975	0	204.264	208.019	204.975	0
208.266	4	Aircraft2_70%_20.jpg	1	0.75	208.266	212.021	209.19	1	208.266	212.021	209.19	1
212.276	4	Aircraft1_70%_7.jpg	0	0.75	212.276	216.028	213.093	0	212.276	216.028	213.093	0
216.289	4	Aircraft1_70%_8.jpg	0	0.75	216.289	220.038	216.901	0	216.289	220.038	216.901	0
220.284	4	rest.jpg	NaN	NaN	220.284	224.033	224.284	NaN	220.284	224.033	224.284	NaN
224.263	4	rest.jpg	NaN	NaN	224.263	228.014	228.263	NaN	224.263	228.014	228.263	NaN
228.244	4	rest.jpg	NaN	NaN	228.244	231.991	232.244	NaN	228.244	231.991	232.244	NaN
232.252	4	Aircraft2_10%_31.jpg	1	0.1	232.252	236.002	233.053	1	232.252	236.002	233.053	1
236.269	4	Aircraft1_10%_4.jpg	0	0.1	236.269	240.018	236.835	0	236.269	240.018	236.835	0
240.272	4	Aircraft2_10%_20.jpg	1	0.1	240.272	244.021	240.757	1	240.272	244.021	240.757	1
244.282	4	Aircraft1_10%_7.jpg	0	0.1	244.282	248.037	244.865	0	244.282	248.037	244.865	0
248.299	4	Aircraft1_10%_8.jpg	0	0.1	248.299	252.052	248.775	0	248.299	252.052	248.775	0
252.32	4	rest.jpg	NaN	NaN	252.32	256.067	256.32	NaN	252.32	256.067	256.32	NaN
256.302	4	rest.jpg	NaN	NaN	256.302	260.048	260.302	NaN	256.302	260.048	260.302	NaN
260.289	4	rest.jpg	NaN	NaN	260.289	264.036	264.289	NaN	260.289	264.036	264.289	NaN
264.279	4	Aircraft2_90%_41.jpg	1	0.9	264.279	268.033	265.557	1	264.279	268.033	265.557	1
268.276	4	Aircraft1_90%_22.jpg	0	0.9	268.276	272.026	269.325	0	268.276	272.026	269.325	0
272.271	4	Aircraft1_90%_44.jpg	0	0.9	272.271	276.018	273.15	0	272.271	276.018	273.15	0
276.262	4	Aircraft1_90%_1.jpg	0	0.9	276.262	280.015	277.386	0	276.262	280.015	277.386	0
280.276	4	Aircraft2_90%_37.jpg	1	0.9	280.276	284.028	281.411	1	280.276	284.028	281.411	1
284.278	4	rest.jpg	NaN	NaN	284.278	288.025	288.278	NaN	284.278	288.025	288.278	NaN
288.272	4	rest.jpg	NaN	NaN	288.272	292.021	292.272	NaN	288.272	292.021	292.272	NaN
292.266	4	rest.jpg	NaN	NaN	292.266	296.014	296.266	NaN	292.266	296.014	296.266	NaN
296.258	4	Aircraft2_70%_41.jpg	1	0.75	296.258	300.007	297.113	1	296.258	300.007	297.113	1
300.254	4	Aircraft1_70%_22.jpg	0	0.75	300.254	304.001	301.333	0	300.254	304.001	301.333	0
304.255	4	Aircraft1_70%_44.jpg	0	0.75	304.255	308.008	305.102	0	304.255	308.008	305.102	0
308.267	4	Aircraft1_70%_1.jpg	0	0.75	308.267	312.018	309.213	0	308.267	312.018	309.213	0
312.263	4	Aircraft2_70%_37.jpg	1	0.75	312.263	316.01	313.038	1	312.263	316.01	313.038	1
316.257	4	rest.jpg	NaN	NaN	316.257	320.016	320.257	NaN	316.257	320.016	320.257	NaN
320.256	4	rest.jpg	NaN	NaN	320.256	324.006	324.256	NaN	320.256	324.006	324.256	NaN
324.248	4	rest.jpg	NaN	NaN	324.248	327.997	328.248	NaN	324.248	327.997	328.248	NaN
328.253	4	Aircraft2_10%_33.jpg	1	0.1	328.253	332.004	329.139	1	328.253	332.004	329.139	1
332.266	4	Aircraft2_10%_38.jpg	1	0.1	332.266	336.023	333.333	1	332.266	336.023	333.333	1
336.269	4	Aircraft1_10%_30.jpg	0	0.1	336.269	340.022	336.866	0	336.269	340.022	336.866	0
340.269	4	Aircraft1_10%_41.jpg	0	0.1	340.269	344.023	340.753	0	340.269	344.023	340.753	0
344.27	4	Aircraft1_10%_18.jpg	0	0.1	344.27	348.019	344.81	0	344.27	348.019	344.81	0
348.265	4	rest.jpg	NaN	NaN	348.265	352.019	352.265	NaN	348.265	352.019	352.265	NaN
352.251	4	rest.jpg	NaN	NaN	352.251	356.001	356.251	NaN	352.251	356.001	356.251	NaN
356.235	4	rest.jpg	NaN	NaN	356.235	359.987	360.235	NaN	356.235	359.987	360.235	NaN
360.251	4	Aircraft2_90%_23.jpg	1	0.9	360.251	363.998	361.331	1	360.251	363.998	361.331	1
364.249	4	Aircraft1_90%_28.jpg	0	0.9	364.249	367.995	365.431	0	364.249	367.995	365.431	0
368.254	4	Aircraft2_90%_13.jpg	1	0.9	368.254	372.001	369.223	1	368.254	372.001	369.223	1
372.257	4	Aircraft1_90%_45.jpg	0	0.9	372.257	376.012	373.354	0	372.257	376.012	373.354	0
376.273	4	Aircraft1_90%_37.jpg	0	0.9	376.273	380.026	377.326	0	376.273	380.026	377.326	0
380.289	4	rest.jpg	NaN	NaN	380.289	384.036	384.289	NaN	380.289	384.036	384.289	NaN
384.268	4	rest.jpg	NaN	NaN	384.268	388.019	388.268	NaN	384.268	388.019	388.268	NaN
388.263	4	rest.jpg	NaN	NaN	388.263	392.012	392.263	NaN	388.263	392.012	392.263	NaN
392.258	4	Aircraft1_70%_2.jpg	0	0.75	392.258	396.013	393.175	0	392.258	396.013	393.175	0
396.266	4	Aircraft1_70%_39.jpg	0	0.75	396.266	400.013	397.507	0	396.266	400.013	397.507	0
400.274	4	Aircraft2_70%_26.jpg	1	0.75	400.274	404.027	401.832	1	400.274	404.027	401.832	1
404.283	4	Aircraft1_70%_15.jpg	0	0.75	404.283	408.03	405.188	0	404.283	408.03	405.188	0
408.274	4	Aircraft2_70%_16.jpg	1	0.75	408.274	412.021	408.894	1	408.274	412.021	408.894	1
412.279	4	rest.jpg	NaN	NaN	412.279	416.028	416.279	NaN	412.279	416.028	416.279	NaN
416.26	4	rest.jpg	NaN	NaN	416.26	420.007	420.26	NaN	416.26	420.007	420.26	NaN
420.247	4	rest.jpg	NaN	NaN	420.247	424	424.247	NaN	420.247	424	424.247	NaN
424.247	4	Aircraft2_10%_4.jpg	1	0.1	424.247	427.996	425.124	1	424.247	427.996	425.124	1
428.263	4	Aircraft1_10%_43.jpg	0	0.1	428.263	432.012	428.869	0	428.263	432.012	428.869	0
432.266	4	Aircraft1_10%_9.jpg	0	0.1	432.266	436.015	432.775	0	432.266	436.015	432.775	0
436.263	4	Aircraft1_10%_11.jpg	0	0.1	436.263	440.016	436.792	0	436.263	440.016	436.792	0
440.271	4	Aircraft1_10%_50.jpg	0	0.1	440.271	444.025	440.89	0	440.271	444.025	440.89	0
444.307	4	rest.jpg	NaN	NaN	444.307	448.061	448.307	NaN	444.307	448.061	448.307	NaN
448.299	4	rest.jpg	NaN	NaN	448.299	452.051	452.299	NaN	448.299	452.051	452.299	NaN
452.286	4	rest.jpg	NaN	NaN	452.286	456.035	456.286	NaN	452.286	456.035	456.286	NaN
456.29	4	Aircraft1_90%_38.jpg	0	0.9	456.29	460.037	456.985	0	456.29	460.037	456.985	0
460.299	4	Aircraft2_90%_21.jpg	1	0.9	460.299	464.052	461.156	1	460.299	464.052	461.156	1
464.314	4	Aircraft1_90%_16.jpg	0	0.9	464.314	468.067	465.169	0	464.314	468.067	465.169	0
468.312	4	Aircraft1_90%_46.jpg	0	0.9	468.312	472.062	469.259	0	468.312	472.062	469.259	0
472.323	4	Aircraft2_90%_40.jpg	1	0.9	472.323	476.069	473.051	1	472.323	476.069	473.051	1
476.325	4	rest.jpg	NaN	NaN	476.325	480.079	480.325	NaN	476.325	480.079	480.325	NaN
480.326	4	rest.jpg	NaN	NaN	480.326	484.075	484.326	NaN	480.326	484.075	484.326	NaN
484.32	4	rest.jpg	NaN	NaN	484.32	488.069	488.32	NaN	484.32	488.069	488.32	NaN
488.315	4	Aircraft1_70%_36.jpg	0	0.75	488.315	492.069	489.647	0	488.315	492.069	489.647	0
492.319	4	Aircraft1_70%_35.jpg	0	0.75	492.319	496.066	493.144	0	492.319	496.066	493.144	0
496.312	4	Aircraft2_70%_3.jpg	1	0.75	496.312	500.061	497.003	1	496.312	500.061	497.003	1
500.322	4	Aircraft1_70%_5.jpg	0	0.75	500.322	504.069	501.347	0	500.322	504.069	501.347	0
504.315	4	Aircraft1_70%_48.jpg	0	0.75	504.315	508.068	505.082	0	504.315	508.068	505.082	0
508.314	4	rest.jpg	NaN	NaN	508.314	512.06	512.314	NaN	508.314	512.06	512.314	NaN
512.305	4	rest.jpg	NaN	NaN	512.305	516.056	516.305	NaN	512.305	516.056	516.305	NaN
516.287	4	rest.jpg	NaN	NaN	516.287	520.033	520.287	NaN	516.287	520.033	520.287	NaN
520.294	4	Aircraft2_10%_18.jpg	1	0.1	520.294	524.044	521.182	1	520.294	524.044	521.182	1
524.291	4	Aircraft1_10%_29.jpg	0	0.1	524.291	528.044	524.748	0	524.291	528.044	524.748	0
528.293	4	Aircraft2_10%_1.jpg	1	0.1	528.293	532.045	528.99	1	528.293	532.045	528.99	1
532.292	4	Aircraft1_10%_26.jpg	0	0.1	532.292	536.039	532.729	0	532.292	536.039	532.729	0
536.298	4	Aircraft2_10%_34.jpg	1	0.1	536.298	540.047	536.839	1	536.298	540.047	536.839	1
540.307	4	rest.jpg	NaN	NaN	540.307	544.054	544.307	NaN	540.307	544.054	544.307	NaN
544.295	4	rest.jpg	NaN	NaN	544.295	548.046	548.295	NaN	544.295	548.046	548.295	NaN
548.283	4	rest.jpg	NaN	NaN	548.283	552.033	552.283	NaN	548.283	552.033	552.283	NaN
552.276	4	Aircraft2_90%_30.jpg	1	0.9	552.276	556.023	553.071	1	552.276	556.023	553.071	1
556.278	4	Aircraft2_90%_27.jpg	1	0.9	556.278	560.031	557.405	1	556.278	560.031	557.405	1
560.291	4	Aircraft2_90%_50.jpg	1	0.9	560.291	564.044	561.567	1	560.291	564.044	561.567	1
564.292	4	Aircraft2_90%_29.jpg	1	0.9	564.292	568.039	564.878	1	564.292	568.039	564.878	1
568.299	4	Aircraft1_90%_6.jpg	0	0.9	568.299	572.046	568.899	0	568.299	572.046	568.899	0
572.292	4	rest.jpg	NaN	NaN	572.292	576.041	576.292	NaN	572.292	576.041	576.292	NaN
576.286	4	rest.jpg	NaN	NaN	576.286	580.035	580.286	NaN	576.286	580.035	580.286	NaN
580.267	4	rest.jpg	NaN	NaN	580.267	584.018	584.267	NaN	580.267	584.018	584.267	NaN
584.267	4	Aircraft2_70%_17.jpg	1	0.75	584.267	588.014	584.949	1	584.267	588.014	584.949	1
588.258	4	Aircraft2_70%_11.jpg	1	0.75	588.258	592.008	588.957	1	588.258	592.008	588.957	1
592.255	4	Aircraft1_70%_20.jpg	0	0.75	592.255	596.009	593.164	0	592.255	596.009	593.164	0
596.252	4	Aircraft2_70%_47.jpg	1	0.75	596.252	600.006	597.217	1	596.252	600.006	597.217	1
600.252	4	Aircraft2_70%_45.jpg	1	0.75	600.252	603.999	601.108	1	600.252	603.999	601.108	1
604.265	4	rest.jpg	NaN	NaN	604.265	608.013	608.265	NaN	604.265	608.013	608.265	NaN
608.254	4	rest.jpg	NaN	NaN	608.254	612.001	612.254	NaN	608.254	612.001	612.254	NaN
612.239	4	rest.jpg	NaN	NaN	612.239	615.987	616.239	NaN	612.239	615.987	616.239	NaN
616.246	4	Aircraft1_10%_32.jpg	0	0.1	616.246	619.997	616.84	0	616.246	619.997	616.84	0
620.243	4	Aircraft1_10%_49.jpg	0	0.1	620.243	623.996	620.745	0	620.243	623.996	620.745	0
624.243	4	Aircraft2_10%_22.jpg	1	0.1	624.243	627.995	624.845	1	624.243	627.995	624.845	1
628.243	4	Aircraft1_10%_34.jpg	0	0.1	628.243	631.995	628.815	0	628.243	631.995	628.815	0
632.244	4	Aircraft1_10%_14.jpg	0	0.1	632.244	635.991	632.677	0	632.244	635.991	632.677	0
636.255	4	rest.jpg	NaN	NaN	636.255	640.008	640.255	NaN	636.255	640.008	640.255	NaN
640.253	4	rest.jpg	NaN	NaN	640.253	644.003	644.253	NaN	640.253	644.003	644.253	NaN
644.247	4	rest.jpg	NaN	NaN	644.247	648.002	648.247	NaN	644.247	648.002	648.247	NaN
648.247	4	Aircraft1_90%_1.jpg	0	0.9	648.247	652.001	649.427	0	648.247	652.001	649.427	0
652.247	4	Aircraft1_90%_47.jpg	0	0.9	652.247	655.993	653.324	0	652.247	655.993	653.324	0
656.255	4	Aircraft1_90%_40.jpg	0	0.9	656.255	660.002	657.366	0	656.255	660.002	657.366	0
660.253	4	Aircraft1_90%_27.jpg	0	0.9	660.253	664.008	660.949	0	660.253	664.008	660.949	0
664.253	4	Aircraft2_90%_35.jpg	1	0.9	664.253	668.006	665.189	1	664.253	668.006	665.189	1
668.263	4	rest.jpg	NaN	NaN	668.263	672.016	672.263	NaN	668.263	672.016	672.263	NaN
672.248	4	rest.jpg	NaN	NaN	672.248	676	676.248	NaN	672.248	676	676.248	NaN
676.233	4	rest.jpg	NaN	NaN	676.233	679.986	680.233	NaN	676.233	679.986	680.233	NaN
680.249	4	Aircraft2_70%_23.jpg	1	0.75	680.249	683.997	681.624	1	680.249	683.997	681.624	1
684.245	4	Aircraft1_70%_28.jpg	0	0.75	684.245	688	685.33	0	684.245	688	685.33	0
688.246	4	Aircraft2_70%_13.jpg	1	0.75	688.246	691.994	689.029	1	688.246	691.994	689.029	1
692.256	4	Aircraft1_70%_45.jpg	0	0.75	692.256	696.01	693.054	0	692.256	696.01	693.054	0
696.272	4	Aircraft1_70%_37.jpg	0	0.75	696.272	700.021	696.927	0	696.272	700.021	696.927	0
700.274	4	rest.jpg	NaN	NaN	700.274	704.021	704.274	NaN	700.274	704.021	704.274	NaN
704.25	4	rest.jpg	NaN	NaN	704.25	708.004	708.25	NaN	704.25	708.004	708.25	NaN
708.24	4	rest.jpg	NaN	NaN	708.24	711.991	712.24	NaN	708.24	711.991	712.24	NaN
712.244	4	Aircraft1_10%_25.jpg	0	0.1	712.244	715.996	712.874	0	712.244	715.996	712.874	0
716.247	4	Aircraft2_10%_49.jpg	1	0.1	716.247	719.999	716.678	1	716.247	719.999	716.678	1
720.255	4	Aircraft2_10%_10.jpg	1	0.1	720.255	724.002	720.887	1	720.255	724.002	720.887	1
724.267	4	Aircraft2_10%_12.jpg	1	0.1	724.267	728.013	724.819	1	724.267	728.013	724.819	1
728.258	4	Aircraft2_10%_7.jpg	1	0.1	728.258	732.005	728.869	1	728.258	732.005	728.869	1
732.264	4	rest.jpg	NaN	NaN	732.264	736.012	736.264	NaN	732.264	736.012	736.264	NaN
736.255	4	rest.jpg	NaN	NaN	736.255	740.006	740.255	NaN	736.255	740.006	740.255	NaN
740.237	4	rest.jpg	NaN	NaN	740.237	743.991	744.237	NaN	740.237	743.991	744.237	NaN
744.237	4	Aircraft2_90%_17.jpg	1	0.9	744.237	747.984	745.281	1	744.237	747.984	745.281	1
748.23	4	Aircraft2_90%_11.jpg	1	0.9	748.23	751.985	748.94	1	748.23	751.985	748.94	1
752.249	4	Aircraft1_90%_20.jpg	0	0.9	752.249	755.998	753.207	0	752.249	755.998	753.207	0
756.252	4	Aircraft2_90%_47.jpg	1	0.9	756.252	760.002	756.994	1	756.252	760.002	756.994	1
760.264	4	Aircraft2_90%_45.jpg	1	0.9	760.264	764.016	760.994	1	760.264	764.016	760.994	1
764.278	4	rest.jpg	NaN	NaN	764.278	768.031	768.278	NaN	764.278	768.031	768.278	NaN
768.267	4	rest.jpg	NaN	NaN	768.267	772.016	772.267	NaN	768.267	772.016	772.267	NaN
772.255	4	rest.jpg	NaN	NaN	772.255	776.004	776.255	NaN	772.255	776.004	776.255	NaN
776.253	4	Aircraft1_70%_38.jpg	0	0.75	776.253	780.008	776.972	0	776.253	780.008	776.972	0
780.255	4	Aircraft2_70%_21.jpg	1	0.75	780.255	784.008	780.856	1	780.255	784.008	780.856	1
784.254	4	Aircraft1_70%_16.jpg	0	0.75	784.254	788.005	785.512	0	784.254	788.005	785.512	0
788.263	4	Aircraft1_70%_46.jpg	0	0.75	788.263	792.016	789.318	0	788.263	792.016	789.318	0
792.276	4	Aircraft2_70%_40.jpg	1	0.75	792.276	796.025	793.17	1	792.276	796.025	793.17	1
796.288	4	rest.jpg	NaN	NaN	796.288	800.041	800.288	NaN	796.288	800.041	800.288	NaN
800.271	4	rest.jpg	NaN	NaN	800.271	804.018	804.271	NaN	800.271	804.018	804.271	NaN
804.248	4	rest.jpg	NaN	NaN	804.248	807.997	808.248	NaN	804.248	807.997	808.248	NaN
808.244	4	Aircraft1_10%_3.jpg	0	0.1	808.244	811.991	808.916	0	808.244	811.991	808.916	0
812.237	4	Aircraft2_10%_28.jpg	1	0.1	812.237	815.991	812.903	1	812.237	815.991	812.903	1
816.25	4	Aircraft1_10%_24.jpg	0	0.1	816.25	820.002	816.803	0	816.25	820.002	816.803	0
820.264	4	Aircraft2_10%_39.jpg	1	0.1	820.264	824.017	821.188	1	820.264	824.017	821.188	1
824.285	4	Aircraft2_10%_8.jpg	1	0.1	824.285	828.033	824.999	1	824.285	828.033	824.999	1
828.279	4	rest.jpg	NaN	NaN	828.279	832.033	832.279	NaN	828.279	832.033	832.279	NaN
832.279	4	rest.jpg	NaN	NaN	832.279	836.032	836.279	NaN	832.279	836.032	836.279	NaN
836.273	4	rest.jpg	NaN	NaN	836.273	840.02	840.273	NaN	836.273	840.02	840.273	NaN
840.276	4	Aircraft1_90%_36.jpg	0	0.9	840.276	844.029	841.277	0	840.276	844.029	841.277	0
844.29	4	Aircraft1_90%_35.jpg	0	0.9	844.29	848.042	845.23	0	844.29	848.042	845.23	0
848.31	4	Aircraft2_90%_3.jpg	1	0.9	848.31	852.06	849.349	1	848.31	852.06	849.349	1
852.305	4	Aircraft1_90%_5.jpg	0	0.9	852.305	856.052	853.273	0	852.305	856.052	853.273	0
856.297	4	Aircraft1_90%_48.jpg	0	0.9	856.297	860.052	857.347	0	856.297	860.052	857.347	0
860.298	4	rest.jpg	NaN	NaN	860.298	864.052	864.298	NaN	860.298	864.052	864.298	NaN
864.295	4	rest.jpg	NaN	NaN	864.295	868.042	868.295	NaN	864.295	868.042	868.295	NaN
868.274	4	rest.jpg	NaN	NaN	868.274	872.026	872.274	NaN	868.274	872.026	872.274	NaN
872.284	4	Aircraft2_70%_30.jpg	1	0.75	872.284	876.036	873.06	1	872.284	876.036	873.06	1
876.298	4	Aircraft2_70%_27.jpg	1	0.75	876.298	880.045	877.036	1	876.298	880.045	877.036	1
880.291	4	Aircraft2_70%_50.jpg	1	0.75	880.291	884.038	881.241	1	880.291	884.038	881.241	1
884.284	4	Aircraft2_70%_29.jpg	1	0.75	884.284	888.032	885.192	1	884.284	888.032	885.192	1
888.292	4	Aircraft1_70%_6.jpg	0	0.75	888.292	892.039	889.286	0	888.292	892.039	889.286	0
892.297	4	rest.jpg	NaN	NaN	892.297	896.044	896.297	NaN	892.297	896.044	896.297	NaN
896.295	4	rest.jpg	NaN	NaN	896.295	900.043	900.295	NaN	896.295	900.043	900.295	NaN
900.275	4	rest.jpg	NaN	NaN	900.275	904.028	904.275	NaN	900.275	904.028	904.275	NaN
904.294	4	Aircraft2_10%_14.jpg	1	0.1	904.294	908.045	905.185	1	904.294	908.045	905.185	1
908.29	4	Aircraft2_10%_5.jpg	1	0.1	908.29	912.043	908.785	1	908.29	912.043	908.785	1
912.303	4	Aircraft2_10%_15.jpg	1	0.1	912.303	916.052	912.841	1	912.303	916.052	912.841	1
916.312	4	Aircraft2_10%_19.jpg	1	0.1	916.312	920.065	916.849	1	916.312	920.065	916.849	1
920.32	4	Aircraft1_10%_31.jpg	0	0.1	920.32	924.067	920.794	0	920.32	924.067	920.794	0
924.329	4	rest.jpg	NaN	NaN	924.329	928.081	928.329	NaN	924.329	928.081	928.329	NaN
928.313	4	rest.jpg	NaN	NaN	928.313	932.063	932.313	NaN	928.313	932.063	932.313	NaN
932.295	4	rest.jpg	NaN	NaN	932.295	936.049	936.295	NaN	932.295	936.049	936.295	NaN
936.306	4	Aircraft1_90%_2.jpg	0	0.9	936.306	940.053	937.446	0	936.306	940.053	937.446	0
940.317	4	Aircraft1_90%_39.jpg	0	0.9	940.317	944.074	941.479	0	940.317	944.074	941.479	0
944.318	4	Aircraft2_90%_26.jpg	1	0.9	944.318	948.07	945.594	1	944.318	948.07	945.594	1
948.328	4	Aircraft1_90%_15.jpg	0	0.9	948.328	952.077	949.192	0	948.328	952.077	949.192	0
952.326	4	Aircraft2_90%_16.jpg	1	0.9	952.326	956.073	953.165	1	952.326	956.073	953.165	1
956.323	4	rest.jpg	NaN	NaN	956.323	960.07	960.323	NaN	956.323	960.07	960.323	NaN
960.302	4	rest.jpg	NaN	NaN	960.302	964.055	964.302	NaN	960.302	964.055	964.302	NaN
964.287	4	rest.jpg	NaN	NaN	964.287	968.036	968.287	NaN	964.287	968.036	968.287	NaN
968.286	4	Aircraft1_70%_1.jpg	0	0.75	968.286	972.04	969.085	0	968.286	972.04	969.085	0
972.301	4	Aircraft1_70%_47.jpg	0	0.75	972.301	976.055	973.006	0	972.301	976.055	973.006	0
976.301	4	Aircraft1_70%_40.jpg	0	0.75	976.301	980.053	976.909	0	976.301	980.053	976.909	0
980.298	4	Aircraft1_70%_27.jpg	0	0.75	980.298	984.048	980.947	0	980.298	984.048	980.947	0
984.291	4	Aircraft2_70%_35.jpg	1	0.75	984.291	988.039	985.096	1	984.291	988.039	985.096	1
988.283	4	rest.jpg	NaN	NaN	988.283	992.031	992.283	NaN	988.283	992.031	992.283	NaN
992.268	4	rest.jpg	NaN	NaN	992.268	996.015	996.268	NaN	992.268	996.015	996.268	NaN
996.258	4	rest.jpg	NaN	NaN	996.258	1000.01	1000.258	NaN	996.258	1000.01	1000.258	NaN
