sub	run	block	trail	oneset	duration	stim_file	stim_lable	level of occlusion	stim_started	stim_stopped	key_time	key_fix
47	1	1	1	40.008	4	Aircraft1_10%_2.jpg	0	0.1	40.008	43.745	40.938	0
47	1	1	2	44.018	4	Aircraft1_10%_39.jpg	0	0.1	44.018	47.753	44.876	0
47	1	1	3	48.021	4	Aircraft2_10%_26.jpg	1	0.1	48.021	51.761	48.679	1
47	1	1	4	52.056	4	Aircraft1_10%_15.jpg	0	0.1	52.056	55.786	52.656	0
47	1	1	5	56.065	4	Aircraft2_10%_16.jpg	1	0.1	56.065	59.795	56.582	1
47	1	1	6	60.068	4	rest.jpg	n/a	n/a	60.068	63.798	64.068	n/a
47	1	1	7	64.032	4	rest.jpg	n/a	n/a	64.032	67.769	68.032	n/a
47	1	1	8	68.004	4	rest.jpg	n/a	n/a	68.004	71.735	72.004	n/a
47	1	2	9	72.002	4	Aircraft2_90%_14.jpg	1	0.9	72.002	75.74	73.138	1
47	1	2	10	76.007	4	Aircraft2_90%_5.jpg	1	0.9	76.007	79.748	77.076	1
47	1	2	11	80.013	4	Aircraft2_90%_15.jpg	1	0.9	80.013	83.747	82.022	1
47	1	2	12	84.027	4	Aircraft2_90%_19.jpg	1	0.9	84.027	87.76	85.669	1
47	1	2	13	88.028	4	Aircraft1_90%_31.jpg	0	0.9	88.028	91.767	90.233	0
47	1	2	14	92.063	4	rest.jpg	n/a	n/a	92.063	95.793	96.063	n/a
47	1	2	15	96.043	4	rest.jpg	n/a	n/a	96.043	99.779	100.043	n/a
47	1	2	16	100.032	4	rest.jpg	n/a	n/a	100.032	103.772	104.032	n/a
47	1	3	17	104.045	4	Aircraft2_70%_4.jpg	1	0.75	104.045	107.782	105.167	1
47	1	3	18	108.061	4	Aircraft1_70%_43.jpg	0	0.75	108.061	111.794	108.906	0
47	1	3	19	112.069	4	Aircraft1_70%_9.jpg	0	0.75	112.069	115.805	112.752	0
47	1	3	20	116.079	4	Aircraft1_70%_11.jpg	0	0.75	116.079	119.812	116.936	0
47	1	3	21	120.086	4	Aircraft1_70%_50.jpg	0	0.75	120.086	123.817	121.223	0
47	1	3	22	124.09	4	rest.jpg	n/a	n/a	124.09	127.82	128.09	n/a
47	1	3	23	128.054	4	rest.jpg	n/a	n/a	128.054	131.79	132.054	n/a
47	1	3	24	132.024	4	rest.jpg	n/a	n/a	132.024	135.762	136.024	n/a
47	1	4	25	136.032	4	Aircraft1_10%_36.jpg	0	0.1	136.032	139.772	137.157	0
47	1	4	26	140.064	4	Aircraft1_10%_35.jpg	0	0.1	140.064	143.796	140.979	0
47	1	4	27	144.088	4	Aircraft2_10%_3.jpg	1	0.1	144.088	147.821	144.872	1
47	1	4	28	148.115	4	Aircraft1_10%_5.jpg	0	0.1	148.115	151.852	148.831	0
47	1	4	29	152.132	4	Aircraft1_10%_48.jpg	0	0.1	152.132	155.867	152.916	0
47	1	4	30	156.142	4	rest.jpg	n/a	n/a	156.142	159.874	160.142	n/a
47	1	4	31	160.112	4	rest.jpg	n/a	n/a	160.112	163.843	164.112	n/a
47	1	4	32	164.08	4	rest.jpg	n/a	n/a	164.08	167.817	168.08	n/a
47	1	5	33	168.087	4	Aircraft1_90%_3.jpg	0	0.9	168.087	171.822	169.02	0
47	1	5	34	172.09	4	Aircraft2_90%_28.jpg	1	0.9	172.09	175.821	173.65	1
47	1	5	35	176.11	4	Aircraft1_90%_24.jpg	0	0.9	176.11	179.842	177.14	0
47	1	5	36	180.112	4	Aircraft2_90%_39.jpg	1	0.9	180.112	183.844	181.016	1
47	1	5	37	184.132	4	Aircraft2_90%_8.jpg	1	0.9	184.132	187.861	185.618	1
47	1	5	38	188.13	4	rest.jpg	n/a	n/a	188.13	191.865	192.13	n/a
47	1	5	39	192.099	4	rest.jpg	n/a	n/a	192.099	195.831	196.099	n/a
47	1	5	40	196.085	4	rest.jpg	n/a	n/a	196.085	199.822	200.085	n/a
47	1	6	41	200.104	4	Aircraft2_70%_18.jpg	1	0.75	200.104	203.836	201.209	1
47	1	6	42	204.127	4	Aircraft1_70%_29.jpg	0	0.75	204.127	207.863	204.831	0
47	1	6	43	208.159	4	Aircraft2_70%_1.jpg	1	0.75	208.159	211.894	209.314	1
47	1	6	44	212.189	4	Aircraft1_70%_26.jpg	0	0.75	212.189	215.921	212.831	0
47	1	6	45	216.216	4	Aircraft2_70%_34.jpg	1	0.75	216.216	219.953	217.152	1
47	1	6	46	220.229	4	rest.jpg	n/a	n/a	220.229	223.96	224.229	n/a
47	1	6	47	224.195	4	rest.jpg	n/a	n/a	224.195	227.93	228.195	n/a
47	1	6	48	228.174	4	rest.jpg	n/a	n/a	228.174	231.906	232.174	n/a
47	1	7	49	232.179	4	Aircraft2_10%_17.jpg	1	0.1	232.179	235.909	233.225	1
47	1	7	50	236.22	4	Aircraft2_10%_11.jpg	1	0.1	236.22	239.953	236.819	1
47	1	7	51	240.231	4	Aircraft1_10%_20.jpg	0	0.1	240.231	243.961	240.836	0
47	1	7	52	244.257	4	Aircraft2_10%_47.jpg	1	0.1	244.257	247.987	245	1
47	1	7	53	248.277	4	Aircraft2_10%_45.jpg	1	0.1	248.277	252.009	249.352	1
47	1	7	54	252.281	4	rest.jpg	n/a	n/a	252.281	256.011	256.281	n/a
47	1	7	55	256.248	4	rest.jpg	n/a	n/a	256.248	259.977	260.248	n/a
47	1	7	56	260.228	4	rest.jpg	n/a	n/a	260.228	263.96	264.228	n/a
47	1	8	57	264.229	4	Aircraft1_90%_25.jpg	0	0.9	264.229	267.963	265.456	0
47	1	8	58	268.23	4	Aircraft2_90%_49.jpg	1	0.9	268.23	271.965	269.639	1
47	1	8	59	272.257	4	Aircraft2_90%_10.jpg	1	0.9	272.257	275.992	274.009	1
47	1	8	60	276.28	4	Aircraft2_90%_12.jpg	1	0.9	276.28	280.014	277.167	1
47	1	8	61	280.285	4	Aircraft2_90%_7.jpg	1	0.9	280.285	284.016	281.809	1
47	1	8	62	284.302	4	rest.jpg	n/a	n/a	284.302	288.035	288.302	n/a
47	1	8	63	288.269	4	rest.jpg	n/a	n/a	288.269	291.999	292.269	n/a
47	1	8	64	292.246	4	rest.jpg	n/a	n/a	292.246	295.976	296.246	n/a
47	1	9	65	296.262	4	Aircraft1_70%_32.jpg	0	0.75	296.262	299.999	297.234	0
47	1	9	66	300.291	4	Aircraft1_70%_49.jpg	0	0.75	300.291	304.024	302.102	0
47	1	9	67	304.31	4	Aircraft2_70%_22.jpg	1	0.75	304.31	308.047	306.062	1
47	1	9	68	308.321	4	Aircraft1_70%_34.jpg	0	0.75	308.321	312.051	309.045	0
47	1	9	69	312.343	4	Aircraft1_70%_14.jpg	0	0.75	312.343	316.078	313.303	0
47	1	9	70	316.348	4	rest.jpg	n/a	n/a	316.348	320.08	320.348	n/a
47	1	9	71	320.326	4	rest.jpg	n/a	n/a	320.326	324.059	324.326	n/a
47	1	9	72	324.293	4	rest.jpg	n/a	n/a	324.293	328.03	328.293	n/a
47	1	10	73	328.317	4	Aircraft1_10%_1.jpg	0	0.1	328.317	332.047	329.259	0
47	1	10	74	332.333	4	Aircraft1_10%_47.jpg	0	0.1	332.333	336.065	333.264	0
47	1	10	75	336.338	4	Aircraft1_10%_40.jpg	0	0.1	336.338	340.076	337.106	0
47	1	10	76	340.354	4	Aircraft1_10%_27.jpg	0	0.1	340.354	344.089	341.159	0
47	1	10	77	344.359	4	Aircraft2_10%_35.jpg	1	0.1	344.359	348.095	345.23	1
47	1	10	78	348.38	4	rest.jpg	n/a	n/a	348.38	352.11	352.38	n/a
47	1	10	79	352.359	4	rest.jpg	n/a	n/a	352.359	356.09	356.359	n/a
47	1	10	80	356.324	4	rest.jpg	n/a	n/a	356.324	360.057	360.324	n/a
47	1	11	81	360.324	4	Aircraft1_90%_32.jpg	0	0.9	360.324	364.061	361.413	0
47	1	11	82	364.326	4	Aircraft1_90%_49.jpg	0	0.9	364.326	368.062	365.554	0
47	1	11	83	368.326	4	Aircraft2_90%_22.jpg	1	0.9	368.326	372.061	369.479	1
47	1	11	84	372.328	4	Aircraft1_90%_34.jpg	0	0.9	372.328	376.064	374.443	0
47	1	11	85	376.331	4	Aircraft1_90%_14.jpg	0	0.9	376.331	380.067	377.983	0
47	1	11	86	380.354	4	rest.jpg	n/a	n/a	380.354	384.089	384.354	n/a
47	1	11	87	384.323	4	rest.jpg	n/a	n/a	384.323	388.056	388.323	n/a
47	1	11	88	388.302	4	rest.jpg	n/a	n/a	388.302	392.037	392.302	n/a
47	1	12	89	392.305	4	Aircraft2_70%_24.jpg	1	0.75	392.305	396.037	393.449	1
47	1	12	90	396.317	4	Aircraft2_70%_2.jpg	1	0.75	396.317	400.055	397.738	1
47	1	12	91	400.327	4	Aircraft2_70%_43.jpg	1	0.75	400.327	404.062	401.337	1
47	1	12	92	404.35	4	Aircraft2_70%_46.jpg	1	0.75	404.35	408.083	406.024	1
47	1	12	93	408.355	4	Aircraft1_70%_42.jpg	0	0.75	408.355	412.085	409.14	0
47	1	12	94	412.369	4	rest.jpg	n/a	n/a	412.369	416.099	416.369	n/a
47	1	12	95	416.333	4	rest.jpg	n/a	n/a	416.333	420.063	420.333	n/a
47	1	12	96	420.297	4	rest.jpg	n/a	n/a	420.297	424.033	424.297	n/a
47	1	13	97	424.308	4	Aircraft2_10%_30.jpg	1	0.1	424.308	428.04	425.674	1
47	1	13	98	428.31	4	Aircraft2_10%_27.jpg	1	0.1	428.31	432.046	429.253	1
47	1	13	99	432.339	4	Aircraft2_10%_50.jpg	1	0.1	432.339	436.071	432.959	1
47	1	13	100	436.345	4	Aircraft2_10%_29.jpg	1	0.1	436.345	440.08	436.998	1
47	1	13	101	440.367	4	Aircraft1_10%_6.jpg	0	0.1	440.367	444.097	440.867	0
47	1	13	102	444.368	4	rest.jpg	n/a	n/a	444.368	448.105	448.368	n/a
47	1	13	103	448.356	4	rest.jpg	n/a	n/a	448.356	452.086	452.356	n/a
47	1	13	104	452.32	4	rest.jpg	n/a	n/a	452.32	456.051	456.32	n/a
47	1	14	105	456.337	4	Aircraft2_90%_18.jpg	1	0.9	456.337	460.069	457.776	1
47	1	14	106	460.356	4	Aircraft1_90%_29.jpg	0	0.9	460.356	464.086	461.513	0
47	1	14	107	464.359	4	Aircraft2_90%_1.jpg	1	0.9	464.359	468.094	466.147	1
47	1	14	108	468.361	4	Aircraft1_90%_26.jpg	0	0.9	468.361	472.095	470.365	0
47	1	14	109	472.364	4	Aircraft2_90%_34.jpg	1	0.9	472.364	476.096	473.594	1
47	1	14	110	476.365	4	rest.jpg	n/a	n/a	476.365	480.097	480.365	n/a
47	1	14	111	480.331	4	rest.jpg	n/a	n/a	480.331	484.061	484.331	n/a
47	1	14	112	484.305	4	rest.jpg	n/a	n/a	484.305	488.037	488.305	n/a
47	1	15	113	488.311	4	Aircraft1_70%_17.jpg	0	0.75	488.311	492.046	489.499	0
47	1	15	114	492.336	4	Aircraft2_70%_42.jpg	1	0.75	492.336	496.069	493.436	1
47	1	15	115	496.343	4	Aircraft2_70%_44.jpg	1	0.75	496.343	500.073	497.474	1
47	1	15	116	500.347	4	Aircraft1_70%_10.jpg	0	0.75	500.347	504.084	501.487	0
47	1	15	117	504.376	4	Aircraft2_70%_25.jpg	1	0.75	504.376	508.113	505.114	1
47	1	15	118	508.381	4	rest.jpg	n/a	n/a	508.381	512.119	512.381	n/a
47	1	15	119	512.368	4	rest.jpg	n/a	n/a	512.368	516.103	516.368	n/a
47	1	15	120	516.352	4	rest.jpg	n/a	n/a	516.352	520.087	520.352	n/a
47	1	16	121	520.361	4	Aircraft1_10%_38.jpg	0	0.1	520.361	524.098	521.127	0
47	1	16	122	524.375	4	Aircraft2_10%_21.jpg	1	0.1	524.375	528.105	525.428	1
47	1	16	123	528.397	4	Aircraft1_10%_16.jpg	0	0.1	528.397	532.134	529.229	0
47	1	16	124	532.41	4	Aircraft1_10%_46.jpg	0	0.1	532.41	536.142	533.227	0
47	1	16	125	536.43	4	Aircraft2_10%_40.jpg	1	0.1	536.43	540.163	537.117	1
47	1	16	126	540.45	4	rest.jpg	n/a	n/a	540.45	544.181	544.45	n/a
47	1	16	127	544.43	4	rest.jpg	n/a	n/a	544.43	548.16	548.43	n/a
47	1	16	128	548.392	4	rest.jpg	n/a	n/a	548.392	552.122	552.392	n/a
47	1	17	129	552.402	4	Aircraft2_90%_4.jpg	1	0.9	552.402	556.138	554.075	1
47	1	17	130	556.42	4	Aircraft1_90%_43.jpg	0	0.9	556.42	560.158	557.317	0
47	1	17	131	560.425	4	Aircraft1_90%_9.jpg	0	0.9	560.425	564.162	561.655	0
47	1	17	132	564.437	4	Aircraft1_90%_11.jpg	0	0.9	564.437	568.174	565.154	0
47	1	17	133	568.458	4	Aircraft1_90%_50.jpg	0	0.9	568.458	572.192	570.119	0
47	1	17	134	572.462	4	rest.jpg	n/a	n/a	572.462	576.193	576.462	n/a
47	1	17	135	576.427	4	rest.jpg	n/a	n/a	576.427	580.163	580.427	n/a
47	1	17	136	580.395	4	rest.jpg	n/a	n/a	580.395	584.131	584.395	n/a
47	1	18	137	584.415	4	Aircraft1_70%_12.jpg	0	0.75	584.415	588.15	586.652	0
47	1	18	138	588.423	4	Aircraft2_70%_32.jpg	1	0.75	588.423	592.158	589.461	1
47	1	18	139	592.443	4	Aircraft2_70%_48.jpg	1	0.75	592.443	596.173	593.969	1
47	1	18	140	596.447	4	Aircraft1_70%_19.jpg	0	0.75	596.447	600.182	597.335	0
47	1	18	141	600.455	4	Aircraft1_70%_33.jpg	0	0.75	600.455	604.187	601.729	0
47	1	18	142	604.475	4	rest.jpg	n/a	n/a	604.475	608.205	608.475	n/a
47	1	18	143	608.439	4	rest.jpg	n/a	n/a	608.439	612.176	612.439	n/a
47	1	18	144	612.425	4	rest.jpg	n/a	n/a	612.425	616.156	616.425	n/a
47	1	19	145	616.432	4	Aircraft2_10%_23.jpg	1	0.1	616.432	620.165	617.362	1
47	1	19	146	620.447	4	Aircraft1_10%_28.jpg	0	0.1	620.447	624.177	621.238	0
47	1	19	147	624.451	4	Aircraft2_10%_13.jpg	1	0.1	624.451	628.181	624.983	1
47	1	19	148	628.471	4	Aircraft1_10%_45.jpg	0	0.1	628.471	632.206	628.892	0
47	1	19	149	632.502	4	Aircraft1_10%_37.jpg	0	0.1	632.502	636.235	633.167	0
47	1	19	150	636.52	4	rest.jpg	n/a	n/a	636.52	640.256	640.52	n/a
47	1	19	151	640.504	4	rest.jpg	n/a	n/a	640.504	644.237	644.504	n/a
47	1	19	152	644.474	4	rest.jpg	n/a	n/a	644.474	648.211	648.474	n/a
47	1	20	153	648.493	4	Aircraft2_90%_33.jpg	1	0.9	648.493	652.223	649.945	1
47	1	20	154	652.507	4	Aircraft2_90%_38.jpg	1	0.9	652.507	656.237	654.161	1
47	1	20	155	656.502	4	Aircraft1_90%_30.jpg	0	0.9	656.502	660.237	657.351	0
47	1	20	156	660.504	4	Aircraft1_90%_41.jpg	0	0.9	660.504	664.236	661.418	0
47	1	20	157	664.501	4	Aircraft1_90%_18.jpg	0	0.9	664.501	668.235	665.766	0
47	1	20	158	668.507	4	rest.jpg	n/a	n/a	668.507	672.242	672.507	n/a
47	1	20	159	672.476	4	rest.jpg	n/a	n/a	672.476	676.206	676.476	n/a
47	1	20	160	676.44	4	rest.jpg	n/a	n/a	676.44	680.172	680.44	n/a
47	1	21	161	680.445	4	Aircraft2_70%_9.jpg	1	0.75	680.445	684.177	681.67	1
47	1	21	162	684.459	4	Aircraft2_70%_6.jpg	1	0.75	684.459	688.194	685.636	1
47	1	21	163	688.482	4	Aircraft1_70%_23.jpg	0	0.75	688.482	692.217	690.207	0
47	1	21	164	692.503	4	Aircraft1_70%_21.jpg	0	0.75	692.503	696.236	693.173	0
47	1	21	165	696.525	4	Aircraft2_70%_36.jpg	1	0.75	696.525	700.255	697.291	1
47	1	21	166	700.525	4	rest.jpg	n/a	n/a	700.525	704.26	704.525	n/a
47	1	21	167	704.495	4	rest.jpg	n/a	n/a	704.495	708.23	708.495	n/a
47	1	21	168	708.479	4	rest.jpg	n/a	n/a	708.479	712.214	712.479	n/a
47	1	22	169	712.488	4	Aircraft2_10%_41.jpg	1	0.1	712.488	716.225	713.356	1
47	1	22	170	716.511	4	Aircraft1_10%_22.jpg	0	0.1	716.511	720.247	717.21	0
47	1	22	171	720.535	4	Aircraft1_10%_44.jpg	0	0.1	720.535	724.264	721.099	0
47	1	22	172	724.548	4	Aircraft1_10%_1.jpg	0	0.1	724.548	728.281	725.128	0
47	1	22	173	728.564	4	Aircraft2_10%_37.jpg	1	0.1	728.564	732.294	729.219	1
47	1	22	174	732.562	4	rest.jpg	n/a	n/a	732.562	736.297	736.562	n/a
47	1	22	175	736.547	4	rest.jpg	n/a	n/a	736.547	740.277	740.547	n/a
47	1	22	176	740.523	4	rest.jpg	n/a	n/a	740.523	744.258	744.523	n/a
47	1	23	177	744.544	4	Aircraft2_90%_31.jpg	1	0.9	744.544	748.28	745.963	1
47	1	23	178	748.563	4	Aircraft1_90%_4.jpg	0	0.9	748.563	752.293	750.16	0
47	1	23	179	752.56	4	Aircraft2_90%_20.jpg	1	0.9	752.56	756.29	753.536	1
47	1	23	180	756.573	4	Aircraft1_90%_7.jpg	0	0.9	756.573	760.302	758.131	0
47	1	23	181	760.567	4	Aircraft1_90%_8.jpg	0	0.9	760.567	764.298	762.576	0
47	1	23	182	764.571	4	rest.jpg	n/a	n/a	764.571	768.304	768.571	n/a
47	1	23	183	768.538	4	rest.jpg	n/a	n/a	768.538	772.27	772.538	n/a
47	1	23	184	772.505	4	rest.jpg	n/a	n/a	772.505	776.24	776.505	n/a
47	1	24	185	776.514	4	Aircraft2_70%_14.jpg	1	0.75	776.514	780.249	777.378	1
47	1	24	186	780.537	4	Aircraft2_70%_5.jpg	1	0.75	780.537	784.267	782.163	1
47	1	24	187	784.558	4	Aircraft2_70%_15.jpg	1	0.75	784.558	788.288	786.001	1
47	1	24	188	788.574	4	Aircraft2_70%_19.jpg	1	0.75	788.574	792.304	789.623	1
47	1	24	189	792.577	4	Aircraft1_70%_31.jpg	0	0.75	792.577	796.308	793.548	0
47	1	24	190	796.576	4	rest.jpg	n/a	n/a	796.576	800.312	800.576	n/a
47	1	24	191	800.544	4	rest.jpg	n/a	n/a	800.544	804.281	804.544	n/a
47	1	24	192	804.531	4	rest.jpg	n/a	n/a	804.531	808.268	808.531	n/a
47	1	25	193	808.56	4	Aircraft2_10%_9.jpg	1	0.1	808.56	812.292	809.603	1
47	1	25	194	812.562	4	Aircraft2_10%_6.jpg	1	0.1	812.562	816.295	813.436	1
47	1	25	195	816.584	4	Aircraft1_10%_23.jpg	0	0.1	816.584	820.319	817.287	0
47	1	25	196	820.594	4	Aircraft1_10%_21.jpg	0	0.1	820.594	824.327	821.327	0
47	1	25	197	824.617	4	Aircraft2_10%_36.jpg	1	0.1	824.617	828.347	825.491	1
47	1	25	198	828.617	4	rest.jpg	n/a	n/a	828.617	832.353	832.617	n/a
47	1	25	199	832.585	4	rest.jpg	n/a	n/a	832.585	836.315	836.585	n/a
47	1	25	200	836.547	4	rest.jpg	n/a	n/a	836.547	840.277	840.547	n/a
47	1	26	201	840.542	4	Aircraft2_90%_24.jpg	1	0.9	840.542	844.278	841.556	1
47	1	26	202	844.561	4	Aircraft2_90%_2.jpg	1	0.9	844.561	848.293	845.263	1
47	1	26	203	848.577	4	Aircraft2_90%_43.jpg	1	0.9	848.577	852.314	849.267	1
47	1	26	204	852.598	4	Aircraft2_90%_46.jpg	1	0.9	852.598	856.329	853.393	1
47	1	26	205	856.596	4	Aircraft1_90%_42.jpg	0	0.9	856.596	860.331	857.23	0
47	1	26	206	860.601	4	rest.jpg	n/a	n/a	860.601	864.334	864.601	n/a
47	1	26	207	864.583	4	rest.jpg	n/a	n/a	864.583	868.312	868.583	n/a
47	1	26	208	868.557	4	rest.jpg	n/a	n/a	868.557	872.288	872.557	n/a
47	1	27	209	872.562	4	Aircraft1_70%_3.jpg	0	0.75	872.562	876.295	873.71	0
47	1	27	210	876.583	4	Aircraft2_70%_28.jpg	1	0.75	876.583	880.314	877.46	1
47	1	27	211	880.587	4	Aircraft1_70%_24.jpg	0	0.75	880.587	884.324	881.327	0
47	1	27	212	884.615	4	Aircraft2_70%_39.jpg	1	0.75	884.615	888.352	885.321	1
47	1	27	213	888.625	4	Aircraft2_70%_8.jpg	1	0.75	888.625	892.355	889.892	1
47	1	27	214	892.625	4	rest.jpg	n/a	n/a	892.625	896.355	896.625	n/a
47	1	27	215	896.605	4	rest.jpg	n/a	n/a	896.605	900.336	900.605	n/a
47	1	27	216	900.57	4	rest.jpg	n/a	n/a	900.57	904.306	904.57	n/a
47	1	28	217	904.576	4	Aircraft1_10%_12.jpg	0	0.1	904.576	908.31	905.47	0
47	1	28	218	908.582	4	Aircraft2_10%_32.jpg	1	0.1	908.582	912.314	909.145	1
47	1	28	219	912.607	4	Aircraft2_10%_48.jpg	1	0.1	912.607	916.342	913.638	1
47	1	28	220	916.62	4	Aircraft1_10%_19.jpg	0	0.1	916.62	920.357	917.275	0
47	1	28	221	920.647	4	Aircraft1_10%_33.jpg	0	0.1	920.647	924.379	921.25	0
47	1	28	222	924.666	4	rest.jpg	n/a	n/a	924.666	928.398	928.666	n/a
47	1	28	223	928.646	4	rest.jpg	n/a	n/a	928.646	932.382	932.646	n/a
47	1	28	224	932.632	4	rest.jpg	n/a	n/a	932.632	936.366	936.632	n/a
47	1	29	225	936.652	4	Aircraft1_90%_17.jpg	0	0.9	936.652	940.386	937.698	0
47	1	29	226	940.652	4	Aircraft2_90%_42.jpg	1	0.9	940.652	944.382	942.04	1
47	1	29	227	944.672	4	Aircraft2_90%_44.jpg	1	0.9	944.672	948.405	945.658	1
47	1	29	228	948.672	4	Aircraft1_90%_10.jpg	0	0.9	948.672	952.409	949.378	0
47	1	29	229	952.695	4	Aircraft2_90%_25.jpg	1	0.9	952.695	956.432	953.912	1
47	1	29	230	956.703	4	rest.jpg	n/a	n/a	956.703	960.439	960.703	n/a
47	1	29	231	960.686	4	rest.jpg	n/a	n/a	960.686	964.421	964.686	n/a
47	1	29	232	964.671	4	rest.jpg	n/a	n/a	964.671	968.407	968.671	n/a
47	1	30	233	968.697	4	Aircraft1_70%_25.jpg	0	0.75	968.697	972.432	970.492	0
47	1	30	234	972.701	4	Aircraft2_70%_49.jpg	1	0.75	972.701	976.436	973.674	1
47	1	30	235	976.703	4	Aircraft2_70%_10.jpg	1	0.75	976.703	980.436	977.685	1
47	1	30	236	980.725	4	Aircraft2_70%_12.jpg	1	0.75	980.725	984.461	981.499	1
47	1	30	237	984.751	4	Aircraft2_70%_7.jpg	1	0.75	984.751	988.483	985.483	1
47	1	30	238	988.754	4	rest.jpg	n/a	n/a	988.754	992.489	992.754	n/a
47	1	30	239	992.738	4	rest.jpg	n/a	n/a	992.738	996.468	996.738	n/a
47	1	30	240	996.703	4	rest.jpg	n/a	n/a	996.703	1000.435	1000.703	n/a
