onset	duration	stim_file	stim_lable	levelOfOcclusion	stim_started	stim_stopped	key_time	key_fix
40.019	4	Aircraft1_10%_17.jpg	0	0.1	40.019	43.755	41.18	0
44.065	4	Aircraft2_10%_42.jpg	1	0.1	44.065	47.794	45.114	1
48.107	4	Aircraft2_10%_44.jpg	1	0.1	48.107	51.842	49.012	1
52.121	4	Aircraft1_10%_10.jpg	0	0.1	52.121	55.856	53.976	0
56.162	4	Aircraft2_10%_25.jpg	1	0.1	56.162	59.891	56.983	1
60.202	4	rest.jpg	n/a	n/a	60.202	63.933	64.202	n/a
64.168	4	rest.jpg	n/a	n/a	64.168	67.9	68.168	n/a
68.152	4	rest.jpg	n/a	n/a	68.152	71.887	72.152	n/a
72.169	4	Aircraft1_90%_12.jpg	0	0.9	72.169	75.899	74.669	0
76.201	4	Aircraft2_90%_32.jpg	1	0.9	76.201	79.93	78.957	1
80.239	4	Aircraft2_90%_48.jpg	1	0.9	80.239	83.975	82.14	1
84.258	4	Aircraft1_90%_19.jpg	0	0.9	84.258	87.987	86.459	0
88.304	4	Aircraft1_90%_33.jpg	0	0.9	88.304	92.035	89.009	0
92.305	4	rest.jpg	n/a	n/a	92.305	96.041	96.305	n/a
96.286	4	rest.jpg	n/a	n/a	96.286	100.018	100.286	n/a
100.267	4	rest.jpg	n/a	n/a	100.267	103.996	104.267	n/a
104.312	4	Aircraft2_70%_33.jpg	1	0.75	104.312	108.041	105.606	1
108.346	4	Aircraft2_70%_38.jpg	1	0.75	108.346	112.078	111.13	1
112.409	4	Aircraft1_70%_30.jpg	0	0.75	112.409	116.14	113.675	0
116.428	4	Aircraft1_70%_41.jpg	0	0.75	116.428	120.157	119.011	0
120.431	4	Aircraft1_70%_18.jpg	0	0.75	120.431	124.166	121.554	0
124.437	4	rest.jpg	n/a	n/a	124.437	128.166	128.437	n/a
128.4	4	rest.jpg	n/a	n/a	128.4	132.136	132.4	n/a
132.371	4	rest.jpg	n/a	n/a	132.371	136.103	136.371	n/a
136.407	4	Aircraft2_10%_24.jpg	1	0.1	136.407	140.136	137.671	1
140.45	4	Aircraft2_10%_2.jpg	1	0.1	140.45	144.179	141.208	1
144.485	4	Aircraft2_10%_43.jpg	1	0.1	144.485	148.215	145.244	1
148.521	4	Aircraft2_10%_46.jpg	1	0.1	148.521	152.256	149.372	1
152.526	4	Aircraft1_10%_42.jpg	0	0.1	152.526	156.257	153.442	0
156.544	4	rest.jpg	n/a	n/a	156.544	160.273	160.544	n/a
160.52	4	rest.jpg	n/a	n/a	160.52	164.255	164.52	n/a
164.489	4	rest.jpg	n/a	n/a	164.489	168.224	168.489	n/a
168.53	4	Aircraft2_90%_9.jpg	1	0.9	168.53	172.261	172.106	1
172.556	4	Aircraft2_90%_6.jpg	1	0.9	172.556	176.284	175.329	1
176.559	4	Aircraft1_90%_23.jpg	0	0.9	176.559	180.289	178.122	0
180.586	4	Aircraft1_90%_21.jpg	0	0.9	180.586	184.32	183.948	0
184.599	4	Aircraft2_90%_36.jpg	1	0.9	184.599	188.334	186.714	1
188.621	4	rest.jpg	n/a	n/a	188.621	192.353	192.621	n/a
192.587	4	rest.jpg	n/a	n/a	192.587	196.322	196.587	n/a
196.57	4	rest.jpg	n/a	n/a	196.57	200.302	200.57	n/a
200.627	4	Aircraft2_70%_31.jpg	1	0.75	200.627	204.362	201.706	1
204.636	4	Aircraft1_70%_4.jpg	0	0.75	204.636	208.37	206.54	0
208.655	4	Aircraft2_70%_20.jpg	1	0.75	208.655	212.384	209.854	1
212.691	4	Aircraft1_70%_7.jpg	0	0.75	212.691	216.425	214.625	0
216.707	4	Aircraft1_70%_8.jpg	0	0.75	216.707	220.441	219.574	0
220.726	4	rest.jpg	n/a	n/a	220.726	224.455	224.726	n/a
224.689	4	rest.jpg	n/a	n/a	224.689	228.423	228.689	n/a
228.669	4	rest.jpg	n/a	n/a	228.669	232.4	232.669	n/a
232.677	4	Aircraft2_10%_31.jpg	1	0.1	232.677	236.408	233.551	1
236.715	4	Aircraft1_10%_4.jpg	0	0.1	236.715	240.446	237.568	0
240.718	4	Aircraft2_10%_20.jpg	1	0.1	240.718	244.447	241.448	1
244.758	4	Aircraft1_10%_7.jpg	0	0.1	244.758	248.488	245.61	0
248.797	4	Aircraft1_10%_8.jpg	0	0.1	248.797	252.531	249.765	0
252.817	4	rest.jpg	n/a	n/a	252.817	256.551	256.817	n/a
256.8	4	rest.jpg	n/a	n/a	256.8	260.531	260.8	n/a
260.774	4	rest.jpg	n/a	n/a	260.774	264.51	264.774	n/a
264.796	4	Aircraft2_90%_41.jpg	1	0.9	264.796	268.528	266.307	1
268.821	4	Aircraft1_90%_22.jpg	0	0.9	268.821	272.557	269.995	0
272.857	4	Aircraft1_90%_44.jpg	0	0.9	272.857	276.586	274.814	0
276.86	4	Aircraft1_90%_1.jpg	0	0.9	276.86	280.59	279.898	0
280.902	4	Aircraft2_90%_37.jpg	1	0.9	280.902	284.633	282.144	1
284.901	4	rest.jpg	n/a	n/a	284.901	288.637	288.901	n/a
288.879	4	rest.jpg	n/a	n/a	288.879	292.615	292.879	n/a
292.863	4	rest.jpg	n/a	n/a	292.863	296.597	296.863	n/a
296.899	4	Aircraft2_70%_41.jpg	1	0.75	296.899	300.636	299.11	1
300.953	4	Aircraft1_70%_22.jpg	0	0.75	300.953	304.684	302.038	0
304.993	4	Aircraft1_70%_44.jpg	0	0.75	304.993	308.722	306.232	0
309.041	4	Aircraft1_70%_1.jpg	0	0.75	309.041	312.777	310.795	0
313.09	4	Aircraft2_70%_37.jpg	1	0.75	313.09	316.82	315.252	1
317.109	4	rest.jpg	n/a	n/a	317.109	320.837	321.109	n/a
321.084	4	rest.jpg	n/a	n/a	321.084	324.814	325.084	n/a
325.046	4	rest.jpg	n/a	n/a	325.046	328.781	329.046	n/a
329.06	4	Aircraft2_10%_33.jpg	1	0.1	329.06	332.789	331.085	1
333.066	4	Aircraft2_10%_38.jpg	1	0.1	333.066	336.797	333.863	1
337.105	4	Aircraft1_10%_30.jpg	0	0.1	337.105	340.837	338.515	0
341.162	4	Aircraft1_10%_41.jpg	0	0.1	341.162	344.891	342.179	0
345.163	4	Aircraft1_10%_18.jpg	0	0.1	345.163	348.892	346.256	0
349.181	4	rest.jpg	n/a	n/a	349.181	352.91	353.181	n/a
353.159	4	rest.jpg	n/a	n/a	353.159	356.887	357.159	n/a
357.132	4	rest.jpg	n/a	n/a	357.132	360.863	361.132	n/a
361.174	4	Aircraft2_90%_23.jpg	1	0.9	361.174	364.905	363.924	1
365.223	4	Aircraft1_90%_28.jpg	0	0.9	365.223	368.957	366.1	0
369.225	4	Aircraft2_90%_13.jpg	1	0.9	369.225	372.956	371.274	1
373.238	4	Aircraft1_90%_45.jpg	0	0.9	373.238	376.973	375.907	0
377.287	4	Aircraft1_90%_37.jpg	0	0.9	377.287	381.022	378.847	0
381.308	4	rest.jpg	n/a	n/a	381.308	385.037	385.308	n/a
385.288	4	rest.jpg	n/a	n/a	385.288	389.019	389.288	n/a
389.271	4	rest.jpg	n/a	n/a	389.271	393	393.271	n/a
393.315	4	Aircraft1_70%_2.jpg	0	0.75	393.315	397.045	396.632	0
397.358	4	Aircraft1_70%_39.jpg	0	0.75	397.358	401.094	398.45	0
401.41	4	Aircraft2_70%_26.jpg	1	0.75	401.41	405.141	403.261	1
405.462	4	Aircraft1_70%_15.jpg	0	0.75	405.462	409.191	407.693	0
409.513	4	Aircraft2_70%_16.jpg	1	0.75	409.513	413.249	410.785	1
413.519	4	rest.jpg	n/a	n/a	413.519	417.248	417.519	n/a
417.497	4	rest.jpg	n/a	n/a	417.497	421.226	421.497	n/a
421.46	4	rest.jpg	n/a	n/a	421.46	425.194	425.46	n/a
425.469	4	Aircraft2_10%_4.jpg	1	0.1	425.469	429.204	426.558	1
429.524	4	Aircraft1_10%_43.jpg	0	0.1	429.524	433.255	430.284	0
433.544	4	Aircraft1_10%_9.jpg	0	0.1	433.544	437.276	434.299	0
437.591	4	Aircraft1_10%_11.jpg	0	0.1	437.591	441.327	438.597	0
441.64	4	Aircraft1_10%_50.jpg	0	0.1	441.64	445.375	442.409	0
445.66	4	rest.jpg	n/a	n/a	445.66	449.394	449.66	n/a
449.63	4	rest.jpg	n/a	n/a	449.63	453.366	453.63	n/a
453.616	4	rest.jpg	n/a	n/a	453.616	457.345	457.616	n/a
457.651	4	Aircraft1_90%_38.jpg	0	0.9	457.651	461.387	459.608	0
461.702	4	Aircraft2_90%_21.jpg	1	0.9	461.702	465.434	463.67	1
465.714	4	Aircraft1_90%_16.jpg	0	0.9	465.714	469.448	467.386	0
469.757	4	Aircraft1_90%_46.jpg	0	0.9	469.757	473.488	473.757	0
473.773	4	Aircraft2_90%_40.jpg	1	0.9	473.773	477.502	475.309	1
477.775	4	rest.jpg	n/a	n/a	477.775	481.504	481.775	n/a
481.738	4	rest.jpg	n/a	n/a	481.738	485.469	485.738	n/a
485.702	4	rest.jpg	n/a	n/a	485.702	489.437	489.702	n/a
489.758	4	Aircraft1_70%_36.jpg	0	0.75	489.758	493.488	490.922	0
493.776	4	Aircraft1_70%_35.jpg	0	0.75	493.776	497.506	495.474	0
497.795	4	Aircraft2_70%_3.jpg	1	0.75	497.795	501.524	501.795	1
501.841	4	Aircraft1_70%_5.jpg	0	0.75	501.841	505.575	501.979	0
505.877	4	Aircraft1_70%_48.jpg	0	0.75	505.877	509.606	506.749	0
509.88	4	rest.jpg	n/a	n/a	509.88	513.61	513.88	n/a
513.859	4	rest.jpg	n/a	n/a	513.859	517.589	517.859	n/a
517.834	4	rest.jpg	n/a	n/a	517.834	521.57	521.834	n/a
521.883	4	Aircraft2_10%_18.jpg	1	0.1	521.883	525.619	522.871	1
525.918	4	Aircraft1_10%_29.jpg	0	0.1	525.918	529.649	526.933	0
529.961	4	Aircraft2_10%_1.jpg	1	0.1	529.961	533.7	530.578	1
534.016	4	Aircraft1_10%_26.jpg	0	0.1	534.016	537.751	534.921	0
538.067	4	Aircraft2_10%_34.jpg	1	0.1	538.067	541.796	539.126	1
542.081	4	rest.jpg	n/a	n/a	542.081	545.812	546.081	n/a
546.05	4	rest.jpg	n/a	n/a	546.05	549.781	550.05	n/a
550.026	4	rest.jpg	n/a	n/a	550.026	553.761	554.026	n/a
554.041	4	Aircraft2_90%_30.jpg	1	0.9	554.041	557.779	555.416	1
558.079	4	Aircraft2_90%_27.jpg	1	0.9	558.079	561.809	559.893	1
562.08	4	Aircraft2_90%_50.jpg	1	0.9	562.08	565.812	564.076	1
566.084	4	Aircraft2_90%_29.jpg	1	0.9	566.084	569.815	568.076	1
570.13	4	Aircraft1_90%_6.jpg	0	0.9	570.13	573.866	572.127	0
574.138	4	rest.jpg	n/a	n/a	574.138	577.868	578.138	n/a
578.105	4	rest.jpg	n/a	n/a	578.105	581.836	582.105	n/a
582.088	4	rest.jpg	n/a	n/a	582.088	585.817	586.088	n/a
586.09	4	Aircraft2_70%_17.jpg	1	0.75	586.09	589.821	588.353	1
590.136	4	Aircraft2_70%_11.jpg	1	0.75	590.136	593.866	591.913	1
594.14	4	Aircraft1_70%_20.jpg	0	0.75	594.14	597.869	596.258	0
598.176	4	Aircraft2_70%_47.jpg	1	0.75	598.176	601.91	601.697	1
602.223	4	Aircraft2_70%_45.jpg	1	0.75	602.223	605.956	603.338	1
606.226	4	rest.jpg	n/a	n/a	606.226	609.963	610.226	n/a
610.213	4	rest.jpg	n/a	n/a	610.213	613.942	614.213	n/a
614.19	4	rest.jpg	n/a	n/a	614.19	617.926	618.19	n/a
618.244	4	Aircraft1_10%_32.jpg	0	0.1	618.244	621.975	620.14	0
622.302	4	Aircraft1_10%_49.jpg	0	0.1	622.302	626.033	623.223	0
626.318	4	Aircraft2_10%_22.jpg	1	0.1	626.318	630.049	627.152	1
630.319	4	Aircraft1_10%_34.jpg	0	0.1	630.319	634.053	631.725	0
634.365	4	Aircraft1_10%_14.jpg	0	0.1	634.365	638.095	636.025	0
638.375	4	rest.jpg	n/a	n/a	638.375	642.108	642.375	n/a
642.355	4	rest.jpg	n/a	n/a	642.355	646.087	646.355	n/a
646.338	4	rest.jpg	n/a	n/a	646.338	650.069	650.338	n/a
650.331	4	Aircraft1_90%_1.jpg	0	0.9	650.331	654.062	652.285	0
654.357	4	Aircraft1_90%_47.jpg	0	0.9	654.357	658.088	655.747	0
658.36	4	Aircraft1_90%_40.jpg	0	0.9	658.36	662.089	659.225	0
662.399	4	Aircraft1_90%_27.jpg	0	0.9	662.399	666.128	663.82	0
666.403	4	Aircraft2_90%_35.jpg	1	0.9	666.403	670.132	669.109	1
670.413	4	rest.jpg	n/a	n/a	670.413	674.143	674.413	n/a
674.374	4	rest.jpg	n/a	n/a	674.374	678.102	678.374	n/a
678.332	4	rest.jpg	n/a	n/a	678.332	682.068	682.332	n/a
682.335	4	Aircraft2_70%_23.jpg	1	0.75	682.335	686.07	684.285	1
686.381	4	Aircraft1_70%_28.jpg	0	0.75	686.381	690.11	687.694	0
690.42	4	Aircraft2_70%_13.jpg	1	0.75	690.42	694.149	691.637	1
694.454	4	Aircraft1_70%_45.jpg	0	0.75	694.454	698.186	696.699	0
698.495	4	Aircraft1_70%_37.jpg	0	0.75	698.495	702.23	699.796	0
702.511	4	rest.jpg	n/a	n/a	702.511	706.247	706.511	n/a
706.495	4	rest.jpg	n/a	n/a	706.495	710.223	710.495	n/a
710.473	4	rest.jpg	n/a	n/a	710.473	714.203	714.473	n/a
714.483	4	Aircraft1_10%_25.jpg	0	0.1	714.483	718.215	715.337	0
718.532	4	Aircraft2_10%_49.jpg	1	0.1	718.532	722.268	719.389	1
722.584	4	Aircraft2_10%_10.jpg	1	0.1	722.584	726.315	723.797	1
726.587	4	Aircraft2_10%_12.jpg	1	0.1	726.587	730.316	727.547	1
730.597	4	Aircraft2_10%_7.jpg	1	0.1	730.597	734.328	731.538	1
734.593	4	rest.jpg	n/a	n/a	734.593	738.324	738.593	n/a
738.555	4	rest.jpg	n/a	n/a	738.555	742.286	742.555	n/a
742.518	4	rest.jpg	n/a	n/a	742.518	746.254	746.518	n/a
746.516	4	Aircraft2_90%_17.jpg	1	0.9	746.516	750.245	748.963	1
750.508	4	Aircraft2_90%_11.jpg	1	0.9	750.508	754.243	752.279	1
754.513	4	Aircraft1_90%_20.jpg	0	0.9	754.513	758.245	756.187	0
758.544	4	Aircraft2_90%_47.jpg	1	0.9	758.544	762.276	760.578	1
762.593	4	Aircraft2_90%_45.jpg	1	0.9	762.593	766.328	764.975	1
766.613	4	rest.jpg	n/a	n/a	766.613	770.344	770.613	n/a
770.594	4	rest.jpg	n/a	n/a	770.594	774.331	774.594	n/a
774.58	4	rest.jpg	n/a	n/a	774.58	778.315	778.58	n/a
778.594	4	Aircraft1_70%_38.jpg	0	0.75	778.594	782.329	780.571	0
782.603	4	Aircraft2_70%_21.jpg	1	0.75	782.603	786.334	785.068	1
786.647	4	Aircraft1_70%_16.jpg	0	0.75	786.647	790.377	787.604	0
790.655	4	Aircraft1_70%_46.jpg	0	0.75	790.655	794.384	792.735	0
794.701	4	Aircraft2_70%_40.jpg	1	0.75	794.701	798.437	796.354	1
798.702	4	rest.jpg	n/a	n/a	798.702	802.438	802.702	n/a
802.67	4	rest.jpg	n/a	n/a	802.67	806.399	806.67	n/a
806.647	4	rest.jpg	n/a	n/a	806.647	810.378	810.647	n/a
810.695	4	Aircraft1_10%_3.jpg	0	0.1	810.695	814.424	811.455	0
814.739	4	Aircraft2_10%_28.jpg	1	0.1	814.739	818.469	815.666	1
818.74	4	Aircraft1_10%_24.jpg	0	0.1	818.74	822.476	819.583	0
822.785	4	Aircraft2_10%_39.jpg	1	0.1	822.785	826.515	823.656	1
826.78	4	Aircraft2_10%_8.jpg	1	0.1	826.78	830.509	827.877	1
830.789	4	rest.jpg	n/a	n/a	830.789	834.524	834.789	n/a
834.771	4	rest.jpg	n/a	n/a	834.771	838.502	838.771	n/a
838.734	4	rest.jpg	n/a	n/a	838.734	842.468	842.734	n/a
842.743	4	Aircraft1_90%_36.jpg	0	0.9	842.743	846.474	844.63	0
846.777	4	Aircraft1_90%_35.jpg	0	0.9	846.777	850.506	848.457	0
850.77	4	Aircraft2_90%_3.jpg	1	0.9	850.77	854.504	853.465	1
854.779	4	Aircraft1_90%_5.jpg	0	0.9	854.779	858.511	856.575	0
858.819	4	Aircraft1_90%_48.jpg	0	0.9	858.819	862.548	860.199	0
862.826	4	rest.jpg	n/a	n/a	862.826	866.555	866.826	n/a
866.787	4	rest.jpg	n/a	n/a	866.787	870.518	870.787	n/a
870.752	4	rest.jpg	n/a	n/a	870.752	874.486	874.752	n/a
874.794	4	Aircraft2_70%_30.jpg	1	0.75	874.794	878.529	875.93	1
878.834	4	Aircraft2_70%_27.jpg	1	0.75	878.834	882.565	879.673	1
882.831	4	Aircraft2_70%_50.jpg	1	0.75	882.831	886.56	884.814	1
886.882	4	Aircraft2_70%_29.jpg	1	0.75	886.882	890.61	889.472	1
890.92	4	Aircraft1_70%_6.jpg	0	0.75	890.92	894.651	892.262	0
894.928	4	rest.jpg	n/a	n/a	894.928	898.657	898.928	n/a
898.906	4	rest.jpg	n/a	n/a	898.906	902.635	902.906	n/a
902.867	4	rest.jpg	n/a	n/a	902.867	906.603	906.867	n/a
906.888	4	Aircraft2_10%_14.jpg	1	0.1	906.888	910.617	907.79	1
910.904	4	Aircraft2_10%_5.jpg	1	0.1	910.904	914.635	911.711	1
914.915	4	Aircraft2_10%_15.jpg	1	0.1	914.915	918.644	915.545	1
918.922	4	Aircraft2_10%_19.jpg	1	0.1	918.922	922.654	920.303	1
922.978	4	Aircraft1_10%_31.jpg	0	0.1	922.978	926.711	923.784	0
926.991	4	rest.jpg	n/a	n/a	926.991	930.723	930.991	n/a
930.956	4	rest.jpg	n/a	n/a	930.956	934.69	934.956	n/a
934.937	4	rest.jpg	n/a	n/a	934.937	938.666	938.937	n/a
938.941	4	Aircraft1_90%_2.jpg	0	0.9	938.941	942.672	941.714	0
942.976	4	Aircraft1_90%_39.jpg	0	0.9	942.976	946.712	945.112	0
946.988	4	Aircraft2_90%_26.jpg	1	0.9	946.988	950.723	948.806	1
951.025	4	Aircraft1_90%_15.jpg	0	0.9	951.025	954.754	953.574	0
955.067	4	Aircraft2_90%_16.jpg	1	0.9	955.067	958.796	957.343	1
959.061	4	rest.jpg	n/a	n/a	959.061	962.795	963.061	n/a
963.041	4	rest.jpg	n/a	n/a	963.041	966.77	967.041	n/a
967.014	4	rest.jpg	n/a	n/a	967.014	970.745	971.014	n/a
971.011	4	Aircraft1_70%_1.jpg	0	0.75	971.011	974.747	972.876	0
975.031	4	Aircraft1_70%_47.jpg	0	0.75	975.031	978.766	975.92	0
979.048	4	Aircraft1_70%_40.jpg	0	0.75	979.048	982.777	980.312	0
983.065	4	Aircraft1_70%_27.jpg	0	0.75	983.065	986.799	984.039	0
987.068	4	Aircraft2_70%_35.jpg	1	0.75	987.068	990.797	989.098	1
991.066	4	rest.jpg	n/a	n/a	991.066	994.798	995.066	n/a
995.046	4	rest.jpg	n/a	n/a	995.046	998.781	999.046	n/a
999.012	4	rest.jpg	n/a	n/a	999.012	1002.741	1003.012	n/a
