onset	duration	stim_file	stim_lable	levelOfOcclusion	stim_started	stim_stopped	key_time	key_fix
39.998	4	Aircraft1_10%_2.jpg	0	0.1	39.998	43.736	42.422	0
43.998	4	Aircraft1_10%_39.jpg	0	0.1	43.998	47.736	46.03	0
48.004	4	Aircraft2_10%_26.jpg	1	0.1	48.004	51.739	49.581	1
52.007	4	Aircraft1_10%_15.jpg	0	0.1	52.007	55.746	53.325	0
56.032	4	Aircraft2_10%_16.jpg	1	0.1	56.032	59.771	57.508	1
60.063	4	rest.jpg	NaN	NaN	60.063	63.802	64.063	NaN
64.053	4	rest.jpg	NaN	NaN	64.053	67.786	68.053	NaN
68.019	4	rest.jpg	NaN	NaN	68.019	71.757	72.019	NaN
72.015	4	Aircraft2_90%_14.jpg	1	0.9	72.015	75.754	73.779	1
76.015	4	Aircraft2_90%_5.jpg	1	0.9	76.015	79.75	77.262	1
80.009	4	Aircraft2_90%_15.jpg	1	0.9	80.009	83.744	82.025	1
84.024	4	Aircraft2_90%_19.jpg	1	0.9	84.024	87.758	86.105	1
88.039	4	Aircraft1_90%_31.jpg	0	0.9	88.039	91.771	90.681	0
92.058	4	rest.jpg	NaN	NaN	92.058	95.797	96.058	NaN
96.029	4	rest.jpg	NaN	NaN	96.029	99.768	100.029	NaN
100.017	4	rest.jpg	NaN	NaN	100.017	103.756	104.017	NaN
104.023	4	Aircraft2_70%_4.jpg	1	0.75	104.023	107.761	106.198	1
108.066	4	Aircraft1_70%_43.jpg	0	0.75	108.066	111.805	109.709	0
112.084	4	Aircraft1_70%_9.jpg	0	0.75	112.084	115.821	114.986	0
116.116	4	Aircraft1_70%_11.jpg	0	0.75	116.116	119.852	118.52	0
120.131	4	Aircraft1_70%_50.jpg	0	0.75	120.131	123.87	122.001	0
124.163	4	rest.jpg	NaN	NaN	124.163	127.896	128.163	NaN
128.133	4	rest.jpg	NaN	NaN	128.133	131.867	132.133	NaN
132.105	4	rest.jpg	NaN	NaN	132.105	135.844	136.105	NaN
136.137	4	Aircraft1_10%_36.jpg	0	0.1	136.137	139.877	138.654	0
140.15	4	Aircraft1_10%_35.jpg	0	0.1	140.15	143.89	142.554	0
144.163	4	Aircraft2_10%_3.jpg	1	0.1	144.163	147.896	145.913	1
148.177	4	Aircraft1_10%_5.jpg	0	0.1	148.177	151.913	149.797	0
152.211	4	Aircraft1_10%_48.jpg	0	0.1	152.211	155.945	153.878	0
156.238	4	rest.jpg	NaN	NaN	156.238	159.969	160.238	NaN
160.225	4	rest.jpg	NaN	NaN	160.225	163.956	164.225	NaN
164.195	4	rest.jpg	NaN	NaN	164.195	167.928	168.195	NaN
168.217	4	Aircraft1_90%_3.jpg	0	0.9	168.217	171.951	170.42	0
172.221	4	Aircraft2_90%_28.jpg	1	0.9	172.221	175.953	174.528	1
176.225	4	Aircraft1_90%_24.jpg	0	0.9	176.225	179.963	178.372	0
180.259	4	Aircraft2_90%_39.jpg	1	0.9	180.259	183.998	182.53	1
184.271	4	Aircraft2_90%_8.jpg	1	0.9	184.271	188.002	186.845	1
188.288	4	rest.jpg	NaN	NaN	188.288	192.028	192.288	NaN
192.261	4	rest.jpg	NaN	NaN	192.261	195.993	196.261	NaN
196.248	4	rest.jpg	NaN	NaN	196.248	199.982	200.248	NaN
200.252	4	Aircraft2_70%_18.jpg	1	0.75	200.252	203.988	201.39	1
204.258	4	Aircraft1_70%_29.jpg	0	0.75	204.258	207.989	206.216	0
208.262	4	Aircraft2_70%_1.jpg	1	0.75	208.262	211.995	210.436	1
212.266	4	Aircraft1_70%_26.jpg	0	0.75	212.266	215.997	214.694	0
216.289	4	Aircraft2_70%_34.jpg	1	0.75	216.289	220.02	218.593	1
220.304	4	rest.jpg	NaN	NaN	220.304	224.039	224.304	NaN
224.271	4	rest.jpg	NaN	NaN	224.271	228.004	228.271	NaN
228.256	4	rest.jpg	NaN	NaN	228.256	231.99	232.256	NaN
232.279	4	Aircraft2_10%_17.jpg	1	0.1	232.279	236.015	234.026	1
236.287	4	Aircraft2_10%_11.jpg	1	0.1	236.287	240.024	237.708	1
240.293	4	Aircraft1_10%_20.jpg	0	0.1	240.293	244.025	241.728	0
244.309	4	Aircraft2_10%_47.jpg	1	0.1	244.309	248.045	245.328	1
248.308	4	Aircraft2_10%_45.jpg	1	0.1	248.308	252.038	249.746	1
252.303	4	rest.jpg	NaN	NaN	252.303	256.039	256.303	NaN
256.284	4	rest.jpg	NaN	NaN	256.284	260.019	260.284	NaN
260.27	4	rest.jpg	NaN	NaN	260.27	264	264.27	NaN
264.288	4	Aircraft1_90%_25.jpg	0	0.9	264.288	268.019	265.708	0
268.3	4	Aircraft2_90%_49.jpg	1	0.9	268.3	272.037	270.622	1
272.318	4	Aircraft2_90%_10.jpg	1	0.9	272.318	276.047	274.388	1
276.323	4	Aircraft2_90%_12.jpg	1	0.9	276.323	280.053	278.668	1
280.334	4	Aircraft2_90%_7.jpg	1	0.9	280.334	284.07	282.459	1
284.353	4	rest.jpg	NaN	NaN	284.353	288.086	288.353	NaN
288.336	4	rest.jpg	NaN	NaN	288.336	292.066	292.336	NaN
292.312	4	rest.jpg	NaN	NaN	292.312	296.048	296.312	NaN
296.333	4	Aircraft1_70%_32.jpg	0	0.75	296.333	300.07	298.056	0
300.339	4	Aircraft1_70%_49.jpg	0	0.75	300.339	304.076	301.815	0
304.357	4	Aircraft2_70%_22.jpg	1	0.75	304.357	308.086	307.086	1
308.351	4	Aircraft1_70%_34.jpg	0	0.75	308.351	312.086	310.374	0
312.373	4	Aircraft1_70%_14.jpg	0	0.75	312.373	316.103	314.533	0
316.38	4	rest.jpg	NaN	NaN	316.38	320.116	320.38	NaN
320.363	4	rest.jpg	NaN	NaN	320.363	324.093	324.363	NaN
324.342	4	rest.jpg	NaN	NaN	324.342	328.079	328.342	NaN
328.347	4	Aircraft1_10%_1.jpg	0	0.1	328.347	332.08	329.587	0
332.364	4	Aircraft1_10%_47.jpg	0	0.1	332.364	336.097	333.743	0
336.392	4	Aircraft1_10%_40.jpg	0	0.1	336.392	340.123	337.72	0
340.398	4	Aircraft1_10%_27.jpg	0	0.1	340.398	344.13	341.781	0
344.399	4	Aircraft2_10%_35.jpg	1	0.1	344.399	348.136	345.284	1
348.419	4	rest.jpg	NaN	NaN	348.419	352.149	352.419	NaN
352.383	4	rest.jpg	NaN	NaN	352.383	356.115	356.383	NaN
356.349	4	rest.jpg	NaN	NaN	356.349	360.079	360.349	NaN
360.362	4	Aircraft1_90%_32.jpg	0	0.9	360.362	364.098	362.141	0
364.372	4	Aircraft1_90%_49.jpg	0	0.9	364.372	368.107	366.176	0
368.369	4	Aircraft2_90%_22.jpg	1	0.9	368.369	372.099	370.276	1
372.378	4	Aircraft1_90%_34.jpg	0	0.9	372.378	376.107	374.322	0
376.368	4	Aircraft1_90%_14.jpg	0	0.9	376.368	380.098	377.881	0
380.363	4	rest.jpg	NaN	NaN	380.363	384.093	384.363	NaN
384.342	4	rest.jpg	NaN	NaN	384.342	388.072	388.342	NaN
388.303	4	rest.jpg	NaN	NaN	388.303	392.033	392.303	NaN
392.316	4	Aircraft2_70%_24.jpg	1	0.75	392.316	396.048	393.819	1
396.311	4	Aircraft2_70%_2.jpg	1	0.75	396.311	400.041	398.374	1
400.327	4	Aircraft2_70%_43.jpg	1	0.75	400.327	404.057	402.188	1
404.34	4	Aircraft2_70%_46.jpg	1	0.75	404.34	408.069	406.063	1
408.355	4	Aircraft1_70%_42.jpg	0	0.75	408.355	412.085	409.685	0
412.367	4	rest.jpg	NaN	NaN	412.367	416.103	416.367	NaN
416.335	4	rest.jpg	NaN	NaN	416.335	420.065	420.335	NaN
420.314	4	rest.jpg	NaN	NaN	420.314	424.044	424.314	NaN
424.332	4	Aircraft2_10%_30.jpg	1	0.1	424.332	428.065	425.664	1
428.328	4	Aircraft2_10%_27.jpg	1	0.1	428.328	432.066	429.44	1
432.354	4	Aircraft2_10%_50.jpg	1	0.1	432.354	436.09	433.593	1
436.359	4	Aircraft2_10%_29.jpg	1	0.1	436.359	440.094	437.647	1
440.383	4	Aircraft1_10%_6.jpg	0	0.1	440.383	444.117	441.588	0
444.399	4	rest.jpg	NaN	NaN	444.399	448.135	448.399	NaN
448.383	4	rest.jpg	NaN	NaN	448.383	452.119	452.383	NaN
452.363	4	rest.jpg	NaN	NaN	452.363	456.099	456.363	NaN
456.361	4	Aircraft2_90%_18.jpg	1	0.9	456.361	460.096	457.705	1
460.364	4	Aircraft1_90%_29.jpg	0	0.9	460.364	464.094	462.026	0
464.362	4	Aircraft2_90%_1.jpg	1	0.9	464.362	468.094	465.988	1
468.355	4	Aircraft1_90%_26.jpg	0	0.9	468.355	472.086	470.389	0
472.348	4	Aircraft2_90%_34.jpg	1	0.9	472.348	476.077	474.358	1
476.357	4	rest.jpg	NaN	NaN	476.357	480.087	480.357	NaN
480.317	4	rest.jpg	NaN	NaN	480.317	484.05	484.317	NaN
484.301	4	rest.jpg	NaN	NaN	484.301	488.032	488.301	NaN
488.319	4	Aircraft1_70%_17.jpg	0	0.75	488.319	492.052	490.08	0
492.318	4	Aircraft2_70%_42.jpg	1	0.75	492.318	496.048	494.839	1
496.314	4	Aircraft2_70%_44.jpg	1	0.75	496.314	500.044	498.406	1
500.311	4	Aircraft1_70%_10.jpg	0	0.75	500.311	504.041	502.291	0
504.308	4	Aircraft2_70%_25.jpg	1	0.75	504.308	508.041	506.582	1
508.325	4	rest.jpg	NaN	NaN	508.325	512.057	512.325	NaN
512.288	4	rest.jpg	NaN	NaN	512.288	516.017	516.288	NaN
516.248	4	rest.jpg	NaN	NaN	516.248	519.978	520.248	NaN
520.259	4	Aircraft1_10%_38.jpg	0	0.1	520.259	523.992	521.83	0
524.273	4	Aircraft2_10%_21.jpg	1	0.1	524.273	528.012	525.322	1
528.292	4	Aircraft1_10%_16.jpg	0	0.1	528.292	532.028	529.291	0
532.318	4	Aircraft1_10%_46.jpg	0	0.1	532.318	536.048	533.648	0
536.335	4	Aircraft2_10%_40.jpg	1	0.1	536.335	540.068	537.472	1
540.339	4	rest.jpg	NaN	NaN	540.339	544.074	544.339	NaN
544.328	4	rest.jpg	NaN	NaN	544.328	548.059	548.328	NaN
548.307	4	rest.jpg	NaN	NaN	548.307	552.037	552.307	NaN
552.297	4	Aircraft2_90%_4.jpg	1	0.9	552.297	556.027	553.762	1
556.289	4	Aircraft1_90%_43.jpg	0	0.9	556.289	560.026	557.931	0
560.303	4	Aircraft1_90%_9.jpg	0	0.9	560.303	564.035	562.225	0
564.32	4	Aircraft1_90%_11.jpg	0	0.9	564.32	568.05	566.488	0
568.336	4	Aircraft1_90%_50.jpg	0	0.9	568.336	572.069	570.696	0
572.357	4	rest.jpg	NaN	NaN	572.357	576.093	576.357	NaN
576.326	4	rest.jpg	NaN	NaN	576.326	580.056	580.326	NaN
580.302	4	rest.jpg	NaN	NaN	580.302	584.032	584.302	NaN
584.297	4	Aircraft1_70%_12.jpg	0	0.75	584.297	588.028	585.595	0
588.312	4	Aircraft2_70%_32.jpg	1	0.75	588.312	592.048	590.01	1
592.311	4	Aircraft2_70%_48.jpg	1	0.75	592.311	596.041	594.31	1
596.328	4	Aircraft1_70%_19.jpg	0	0.75	596.328	600.058	597.878	0
600.351	4	Aircraft1_70%_33.jpg	0	0.75	600.351	604.081	601.833	0
604.371	4	rest.jpg	NaN	NaN	604.371	608.103	608.371	NaN
608.351	4	rest.jpg	NaN	NaN	608.351	612.08	612.351	NaN
612.327	4	rest.jpg	NaN	NaN	612.327	616.065	616.327	NaN
616.347	4	Aircraft2_10%_23.jpg	1	0.1	616.347	620.079	617.629	1
620.357	4	Aircraft1_10%_28.jpg	0	0.1	620.357	624.087	621.29	0
624.376	4	Aircraft2_10%_13.jpg	1	0.1	624.376	628.106	625.311	1
628.371	4	Aircraft1_10%_45.jpg	0	0.1	628.371	632.107	629.797	0
632.392	4	Aircraft1_10%_37.jpg	0	0.1	632.392	636.128	633.384	0
636.393	4	rest.jpg	NaN	NaN	636.393	640.127	640.393	NaN
640.359	4	rest.jpg	NaN	NaN	640.359	644.091	644.359	NaN
644.339	4	rest.jpg	NaN	NaN	644.339	648.076	648.339	NaN
648.355	4	Aircraft2_90%_33.jpg	1	0.9	648.355	652.091	650.04	1
652.351	4	Aircraft2_90%_38.jpg	1	0.9	652.351	656.088	654.443	1
656.35	4	Aircraft1_90%_30.jpg	0	0.9	656.35	660.08	658.615	0
660.36	4	Aircraft1_90%_41.jpg	0	0.9	660.36	664.092	662.7	0
664.377	4	Aircraft1_90%_18.jpg	0	0.9	664.377	668.108	666.367	0
668.373	4	rest.jpg	NaN	NaN	668.373	672.109	672.373	NaN
672.359	4	rest.jpg	NaN	NaN	672.359	676.091	676.359	NaN
676.336	4	rest.jpg	NaN	NaN	676.336	680.067	680.336	NaN
680.332	4	Aircraft2_70%_9.jpg	1	0.75	680.332	684.069	682.365	1
684.343	4	Aircraft2_70%_6.jpg	1	0.75	684.343	688.073	685.702	1
688.36	4	Aircraft1_70%_23.jpg	0	0.75	688.36	692.09	690.012	0
692.357	4	Aircraft1_70%_21.jpg	0	0.75	692.357	696.087	693.933	0
696.375	4	Aircraft2_70%_36.jpg	1	0.75	696.375	700.11	698.047	1
700.375	4	rest.jpg	NaN	NaN	700.375	704.108	704.375	NaN
704.34	4	rest.jpg	NaN	NaN	704.34	708.075	708.34	NaN
708.325	4	rest.jpg	NaN	NaN	708.325	712.06	712.325	NaN
712.342	4	Aircraft2_10%_41.jpg	1	0.1	712.342	716.079	713.809	1
716.346	4	Aircraft1_10%_22.jpg	0	0.1	716.346	720.076	717.364	0
720.359	4	Aircraft1_10%_44.jpg	0	0.1	720.359	724.091	721.288	0
724.373	4	Aircraft1_10%_1.jpg	0	0.1	724.373	728.103	725.166	0
728.368	4	Aircraft2_10%_37.jpg	1	0.1	728.368	732.098	729.269	1
732.363	4	rest.jpg	NaN	NaN	732.363	736.093	736.363	NaN
736.324	4	rest.jpg	NaN	NaN	736.324	740.054	740.324	NaN
740.286	4	rest.jpg	NaN	NaN	740.286	744.018	744.286	NaN
744.302	4	Aircraft2_90%_31.jpg	1	0.9	744.302	748.037	746.262	1
748.298	4	Aircraft1_90%_4.jpg	0	0.9	748.298	752.03	750.417	0
752.31	4	Aircraft2_90%_20.jpg	1	0.9	752.31	756.046	753.776	1
756.327	4	Aircraft1_90%_7.jpg	0	0.9	756.327	760.064	757.999	0
760.326	4	Aircraft1_90%_8.jpg	0	0.9	760.326	764.063	761.706	0
764.348	4	rest.jpg	NaN	NaN	764.348	768.078	768.348	NaN
768.327	4	rest.jpg	NaN	NaN	768.327	772.057	772.327	NaN
772.301	4	rest.jpg	NaN	NaN	772.301	776.031	776.301	NaN
776.298	4	Aircraft2_70%_14.jpg	1	0.75	776.298	780.028	777.837	1
780.311	4	Aircraft2_70%_5.jpg	1	0.75	780.311	784.044	782.334	1
784.329	4	Aircraft2_70%_15.jpg	1	0.75	784.329	788.061	786.111	1
788.326	4	Aircraft2_70%_19.jpg	1	0.75	788.326	792.058	789.904	1
792.325	4	Aircraft1_70%_31.jpg	0	0.75	792.325	796.058	793.662	0
796.322	4	rest.jpg	NaN	NaN	796.322	800.054	800.322	NaN
800.303	4	rest.jpg	NaN	NaN	800.303	804.037	804.303	NaN
804.269	4	rest.jpg	NaN	NaN	804.269	808.007	808.269	NaN
808.28	4	Aircraft2_10%_9.jpg	1	0.1	808.28	812.013	809.239	1
812.277	4	Aircraft2_10%_6.jpg	1	0.1	812.277	816.007	813.1	1
816.276	4	Aircraft1_10%_23.jpg	0	0.1	816.276	820.012	817.279	0
820.279	4	Aircraft1_10%_21.jpg	0	0.1	820.279	824.016	821.184	0
824.295	4	Aircraft2_10%_36.jpg	1	0.1	824.295	828.026	825.28	1
828.289	4	rest.jpg	NaN	NaN	828.289	832.019	832.289	NaN
832.266	4	rest.jpg	NaN	NaN	832.266	836.005	836.266	NaN
836.257	4	rest.jpg	NaN	NaN	836.257	839.996	840.257	NaN
840.264	4	Aircraft2_90%_24.jpg	1	0.9	840.264	843.996	841.708	1
844.264	4	Aircraft2_90%_2.jpg	1	0.9	844.264	847.995	845.961	1
848.26	4	Aircraft2_90%_43.jpg	1	0.9	848.26	851.992	849.997	1
852.279	4	Aircraft2_90%_46.jpg	1	0.9	852.279	856.014	854.361	1
856.276	4	Aircraft1_90%_42.jpg	0	0.9	856.276	860.006	858.635	0
860.272	4	rest.jpg	NaN	NaN	860.272	864.005	863.64	NaN
864.24	4	rest.jpg	NaN	NaN	864.24	867.97	868.24	NaN
868.226	4	rest.jpg	NaN	NaN	868.226	871.963	872.226	NaN
872.235	4	Aircraft1_70%_3.jpg	0	0.75	872.235	875.966	873.671	0
876.237	4	Aircraft2_70%_28.jpg	1	0.75	876.237	879.969	878.005	1
880.266	4	Aircraft1_70%_24.jpg	0	0.75	880.266	883.997	881.571	0
884.286	4	Aircraft2_70%_39.jpg	1	0.75	884.286	888.025	885.5	1
888.31	4	Aircraft2_70%_8.jpg	1	0.75	888.31	892.04	890.09	1
892.322	4	rest.jpg	NaN	NaN	892.322	896.052	896.322	NaN
896.283	4	rest.jpg	NaN	NaN	896.283	900.013	900.283	NaN
900.245	4	rest.jpg	NaN	NaN	900.245	903.981	904.245	NaN
904.25	4	Aircraft1_10%_12.jpg	0	0.1	904.25	907.987	905.249	0
908.281	4	Aircraft2_10%_32.jpg	1	0.1	908.281	912.018	908.984	1
912.289	4	Aircraft2_10%_48.jpg	1	0.1	912.289	916.018	913.179	1
916.281	4	Aircraft1_10%_19.jpg	0	0.1	916.281	920.013	917.229	0
920.275	4	Aircraft1_10%_33.jpg	0	0.1	920.275	924.006	921.255	0
924.292	4	rest.jpg	NaN	NaN	924.292	928.025	928.292	NaN
928.257	4	rest.jpg	NaN	NaN	928.257	931.993	932.257	NaN
932.254	4	rest.jpg	NaN	NaN	932.254	935.987	936.254	NaN
936.255	4	Aircraft1_90%_17.jpg	0	0.9	936.255	939.986	937.802	0
940.254	4	Aircraft2_90%_42.jpg	1	0.9	940.254	943.986	942.045	1
944.274	4	Aircraft2_90%_44.jpg	1	0.9	944.274	948.012	946.079	1
948.292	4	Aircraft1_90%_10.jpg	0	0.9	948.292	952.022	950.312	0
952.297	4	Aircraft2_90%_25.jpg	1	0.9	952.297	956.027	954.073	1
956.308	4	rest.jpg	NaN	NaN	956.308	960.045	960.308	NaN
960.294	4	rest.jpg	NaN	NaN	960.294	964.024	964.294	NaN
964.263	4	rest.jpg	NaN	NaN	964.263	967.993	968.263	NaN
968.261	4	Aircraft1_70%_25.jpg	0	0.75	968.261	971.994	969.566	0
972.262	4	Aircraft2_70%_49.jpg	1	0.75	972.262	975.994	974.084	1
976.287	4	Aircraft2_70%_10.jpg	1	0.75	976.287	980.024	978.112	1
980.312	4	Aircraft2_70%_12.jpg	1	0.75	980.312	984.043	982.139	1
984.329	4	Aircraft2_70%_7.jpg	1	0.75	984.329	988.061	986.304	1
988.341	4	rest.jpg	NaN	NaN	988.341	992.073	992.341	NaN
992.303	4	rest.jpg	NaN	NaN	992.303	996.038	996.303	NaN
996.29	4	rest.jpg	NaN	NaN	996.29	1000.026	1000.29	NaN
