onset	duration	stim_file	stim_lable	levelOfOcclusion	stim_started	stim_stopped	key_time	key_fix
39.988	4	Aircraft1_10%_17.jpg	0	0.1	39.988	43.724	41.565	0
44.011	4	Aircraft2_10%_42.jpg	1	0.1	44.011	47.746	46.947	1
48.034	4	Aircraft2_10%_44.jpg	1	0.1	48.034	51.77	49.175	1
52.061	4	Aircraft1_10%_10.jpg	0	0.1	52.061	55.792	53.104	0
56.078	4	Aircraft2_10%_25.jpg	1	0.1	56.078	59.807	58.335	1
60.093	4	rest.jpg	NaN	NaN	60.093	63.83	64.093	NaN
64.08	4	rest.jpg	NaN	NaN	64.08	67.809	68.08	NaN
68.055	4	rest.jpg	NaN	NaN	68.055	71.789	72.055	NaN
72.077	4	Aircraft1_90%_12.jpg	0	0.9	72.077	75.806	74.923	0
76.078	4	Aircraft2_90%_32.jpg	1	0.9	76.078	79.817	79.339	1
80.086	4	Aircraft2_90%_48.jpg	1	0.9	80.086	83.823	81.967	1
84.091	4	Aircraft1_90%_19.jpg	0	0.9	84.091	87.826	88.091	0
88.102	4	Aircraft1_90%_33.jpg	0	0.9	88.102	91.839	92.102	0
92.111	4	rest.jpg	NaN	NaN	92.111	95.847	96.111	NaN
96.089	4	rest.jpg	NaN	NaN	96.089	99.817	100.089	NaN
100.05	4	rest.jpg	NaN	NaN	100.05	103.786	104.05	NaN
104.055	4	Aircraft2_70%_33.jpg	1	0.75	104.055	107.786	106.248	1
108.082	4	Aircraft2_70%_38.jpg	1	0.75	108.082	111.818	111.48	1
112.094	4	Aircraft1_70%_30.jpg	0	0.75	112.094	115.823	113.63	0
116.118	4	Aircraft1_70%_41.jpg	0	0.75	116.118	119.849	118.199	0
120.126	4	Aircraft1_70%_18.jpg	0	0.75	120.126	123.86	121.487	0
124.125	4	rest.jpg	NaN	NaN	124.125	127.855	128.125	NaN
128.11	4	rest.jpg	NaN	NaN	128.11	131.846	132.11	NaN
132.079	4	rest.jpg	NaN	NaN	132.079	135.809	136.079	NaN
136.099	4	Aircraft2_10%_24.jpg	1	0.1	136.099	139.828	137.946	1
140.106	4	Aircraft2_10%_2.jpg	1	0.1	140.106	143.835	141.8	1
144.102	4	Aircraft2_10%_43.jpg	1	0.1	144.102	147.833	145.93	1
148.122	4	Aircraft2_10%_46.jpg	1	0.1	148.122	151.858	149.743	1
152.126	4	Aircraft1_10%_42.jpg	0	0.1	152.126	155.862	153.574	0
156.151	4	rest.jpg	NaN	NaN	156.151	159.883	160.151	NaN
160.139	4	rest.jpg	NaN	NaN	160.139	163.868	164.139	NaN
164.101	4	rest.jpg	NaN	NaN	164.101	167.835	168.101	NaN
168.099	4	Aircraft2_90%_9.jpg	1	0.9	168.099	171.827	172.099	1
172.088	4	Aircraft2_90%_6.jpg	1	0.9	172.088	175.823	172.34	1
176.084	4	Aircraft1_90%_23.jpg	0	0.9	176.084	179.814	179.572	0
180.075	4	Aircraft1_90%_21.jpg	0	0.9	180.075	183.809	182.23	0
184.074	4	Aircraft2_90%_36.jpg	1	0.9	184.074	187.806	188.074	1
188.073	4	rest.jpg	NaN	NaN	188.073	191.808	192.073	NaN
192.06	4	rest.jpg	NaN	NaN	192.06	195.789	196.06	NaN
196.037	4	rest.jpg	NaN	NaN	196.037	199.767	200.037	NaN
200.058	4	Aircraft2_70%_31.jpg	1	0.75	200.058	203.787	201.457	1
204.056	4	Aircraft1_70%_4.jpg	0	0.75	204.056	207.788	205.592	0
208.057	4	Aircraft2_70%_20.jpg	1	0.75	208.057	211.789	209.297	1
212.075	4	Aircraft1_70%_7.jpg	0	0.75	212.075	215.807	213.385	0
216.075	4	Aircraft1_70%_8.jpg	0	0.75	216.075	219.804	217.489	0
220.072	4	rest.jpg	NaN	NaN	220.072	223.801	224.072	NaN
224.033	4	rest.jpg	NaN	NaN	224.033	227.764	228.033	NaN
228.009	4	rest.jpg	NaN	NaN	228.009	231.744	232.009	NaN
232.032	4	Aircraft2_10%_31.jpg	1	0.1	232.032	235.764	233.777	1
236.033	4	Aircraft1_10%_4.jpg	0	0.1	236.033	239.77	237.273	0
240.04	4	Aircraft2_10%_20.jpg	1	0.1	240.04	243.773	241.52	1
244.048	4	Aircraft1_10%_7.jpg	0	0.1	244.048	247.777	245.402	0
248.066	4	Aircraft1_10%_8.jpg	0	0.1	248.066	251.797	249.379	0
252.066	4	rest.jpg	NaN	NaN	252.066	255.805	256.066	NaN
256.055	4	rest.jpg	NaN	NaN	256.055	259.789	260.055	NaN
260.04	4	rest.jpg	NaN	NaN	260.04	263.772	264.04	NaN
264.039	4	Aircraft2_90%_41.jpg	1	0.9	264.039	267.772	268.039	1
268.04	4	Aircraft1_90%_22.jpg	0	0.9	268.04	271.776	268.226	0
272.043	4	Aircraft1_90%_44.jpg	0	0.9	272.043	275.784	275.271	0
276.052	4	Aircraft1_90%_1.jpg	0	0.9	276.052	279.781	280.052	0
280.056	4	Aircraft2_90%_37.jpg	1	0.9	280.056	283.787	283.337	1
284.063	4	rest.jpg	NaN	NaN	284.063	287.799	288.063	NaN
288.042	4	rest.jpg	NaN	NaN	288.042	291.778	292.042	NaN
292.025	4	rest.jpg	NaN	NaN	292.025	295.761	296.025	NaN
296.055	4	Aircraft2_70%_41.jpg	1	0.75	296.055	299.79	298.392	1
300.066	4	Aircraft1_70%_22.jpg	0	0.75	300.066	303.798	302.461	0
304.067	4	Aircraft1_70%_44.jpg	0	0.75	304.067	307.798	307.064	0
308.084	4	Aircraft1_70%_1.jpg	0	0.75	308.084	311.818	309.678	0
312.104	4	Aircraft2_70%_37.jpg	1	0.75	312.104	315.84	314.731	1
316.12	4	rest.jpg	NaN	NaN	316.12	319.849	320.12	NaN
320.1	4	rest.jpg	NaN	NaN	320.1	323.834	324.1	NaN
324.083	4	rest.jpg	NaN	NaN	324.083	327.817	328.083	NaN
328.089	4	Aircraft2_10%_33.jpg	1	0.1	328.089	331.823	329.299	1
332.113	4	Aircraft2_10%_38.jpg	1	0.1	332.113	335.842	333.103	1
336.133	4	Aircraft1_10%_30.jpg	0	0.1	336.133	339.869	337.072	0
340.139	4	Aircraft1_10%_41.jpg	0	0.1	340.139	343.873	341.012	0
344.142	4	Aircraft1_10%_18.jpg	0	0.1	344.142	347.877	345.375	0
348.142	4	rest.jpg	NaN	NaN	348.142	351.878	352.142	NaN
352.114	4	rest.jpg	NaN	NaN	352.114	355.843	356.114	NaN
356.095	4	rest.jpg	NaN	NaN	356.095	359.83	360.095	NaN
360.112	4	Aircraft2_90%_23.jpg	1	0.9	360.112	363.847	363.725	1
364.122	4	Aircraft1_90%_28.jpg	0	0.9	364.122	367.851	366.05	0
368.134	4	Aircraft2_90%_13.jpg	1	0.9	368.134	371.863	369.764	1
372.125	4	Aircraft1_90%_45.jpg	0	0.9	372.125	375.854	373.473	0
376.117	4	Aircraft1_90%_37.jpg	0	0.9	376.117	379.853	380.117	0
380.119	4	rest.jpg	NaN	NaN	380.119	383.856	384.119	NaN
384.107	4	rest.jpg	NaN	NaN	384.107	387.839	388.107	NaN
388.072	4	rest.jpg	NaN	NaN	388.072	391.803	392.072	NaN
392.071	4	Aircraft1_70%_2.jpg	0	0.75	392.071	395.804	393.383	0
396.09	4	Aircraft1_70%_39.jpg	0	0.75	396.09	399.819	398.037	0
400.11	4	Aircraft2_70%_26.jpg	1	0.75	400.11	403.845	401.407	1
404.133	4	Aircraft1_70%_15.jpg	0	0.75	404.133	407.864	406.834	0
408.135	4	Aircraft2_70%_16.jpg	1	0.75	408.135	411.866	409.664	1
412.131	4	rest.jpg	NaN	NaN	412.131	415.865	416.131	NaN
416.116	4	rest.jpg	NaN	NaN	416.116	419.848	420.116	NaN
420.081	4	rest.jpg	NaN	NaN	420.081	423.813	424.081	NaN
424.098	4	Aircraft2_10%_4.jpg	1	0.1	424.098	427.827	425.769	1
428.114	4	Aircraft1_10%_43.jpg	0	0.1	428.114	431.849	429.095	0
432.135	4	Aircraft1_10%_9.jpg	0	0.1	432.135	435.871	433.126	0
436.15	4	Aircraft1_10%_11.jpg	0	0.1	436.15	439.885	437.848	0
440.15	4	Aircraft1_10%_50.jpg	0	0.1	440.15	443.885	441.195	0
444.169	4	rest.jpg	NaN	NaN	444.169	447.898	448.169	NaN
448.145	4	rest.jpg	NaN	NaN	448.145	451.879	452.145	NaN
452.114	4	rest.jpg	NaN	NaN	452.114	455.848	456.114	NaN
456.111	4	Aircraft1_90%_38.jpg	0	0.9	456.111	459.84	458.133	0
460.117	4	Aircraft2_90%_21.jpg	1	0.9	460.117	463.846	462.221	1
464.132	4	Aircraft1_90%_16.jpg	0	0.9	464.132	467.867	466.953	0
468.133	4	Aircraft1_90%_46.jpg	0	0.9	468.133	471.862	469.981	0
472.144	4	Aircraft2_90%_40.jpg	1	0.9	472.144	475.875	473.793	1
476.14	4	rest.jpg	NaN	NaN	476.14	479.874	480.14	NaN
480.122	4	rest.jpg	NaN	NaN	480.122	483.857	484.122	NaN
484.095	4	rest.jpg	NaN	NaN	484.095	487.832	488.095	NaN
488.098	4	Aircraft1_70%_36.jpg	0	0.75	488.098	491.828	489.074	0
492.097	4	Aircraft1_70%_35.jpg	0	0.75	492.097	495.826	494.386	0
496.096	4	Aircraft2_70%_3.jpg	1	0.75	496.096	499.831	497.528	1
500.11	4	Aircraft1_70%_5.jpg	0	0.75	500.11	503.839	501.638	0
504.11	4	Aircraft1_70%_48.jpg	0	0.75	504.11	507.838	507.493	0
508.103	4	rest.jpg	NaN	NaN	508.103	511.84	512.103	NaN
512.089	4	rest.jpg	NaN	NaN	512.089	515.818	516.089	NaN
516.05	4	rest.jpg	NaN	NaN	516.05	519.784	520.05	NaN
520.05	4	Aircraft2_10%_18.jpg	1	0.1	520.05	523.785	521.402	1
524.071	4	Aircraft1_10%_29.jpg	0	0.1	524.071	527.808	525.923	0
528.095	4	Aircraft2_10%_1.jpg	1	0.1	528.095	531.826	529.495	1
532.098	4	Aircraft1_10%_26.jpg	0	0.1	532.098	535.83	533.549	0
536.095	4	Aircraft2_10%_34.jpg	1	0.1	536.095	539.832	537.437	1
540.099	4	rest.jpg	NaN	NaN	540.099	543.835	544.099	NaN
544.067	4	rest.jpg	NaN	NaN	544.067	547.802	548.067	NaN
548.053	4	rest.jpg	NaN	NaN	548.053	551.784	552.053	NaN
552.047	4	Aircraft2_90%_30.jpg	1	0.9	552.047	555.781	555.122	1
556.063	4	Aircraft2_90%_27.jpg	1	0.9	556.063	559.794	557.97	1
560.058	4	Aircraft2_90%_50.jpg	1	0.9	560.058	563.794	562.861	1
564.078	4	Aircraft2_90%_29.jpg	1	0.9	564.078	567.808	565.507	1
568.072	4	Aircraft1_90%_6.jpg	0	0.9	568.072	571.803	569.782	0
572.088	4	rest.jpg	NaN	NaN	572.088	575.817	576.088	NaN
576.066	4	rest.jpg	NaN	NaN	576.066	579.798	580.066	NaN
580.03	4	rest.jpg	NaN	NaN	580.03	583.759	584.03	NaN
584.021	4	Aircraft2_70%_17.jpg	1	0.75	584.021	587.757	585.832	1
588.031	4	Aircraft2_70%_11.jpg	1	0.75	588.031	591.763	590.363	1
592.048	4	Aircraft1_70%_20.jpg	0	0.75	592.048	595.784	593.343	0
596.057	4	Aircraft2_70%_47.jpg	1	0.75	596.057	599.792	598.393	1
600.067	4	Aircraft2_70%_45.jpg	1	0.75	600.067	603.798	601.975	1
604.065	4	rest.jpg	NaN	NaN	604.065	607.8	608.065	NaN
608.032	4	rest.jpg	NaN	NaN	608.032	611.765	612.032	NaN
612.016	4	rest.jpg	NaN	NaN	612.016	615.749	616.016	NaN
616.034	4	Aircraft1_10%_32.jpg	0	0.1	616.034	619.765	617.105	0
620.033	4	Aircraft1_10%_49.jpg	0	0.1	620.033	623.766	621.477	0
624.034	4	Aircraft2_10%_22.jpg	1	0.1	624.034	627.767	625.178	1
628.032	4	Aircraft1_10%_34.jpg	0	0.1	628.032	631.762	629.468	0
632.051	4	Aircraft1_10%_14.jpg	0	0.1	632.051	635.78	633.672	0
636.045	4	rest.jpg	NaN	NaN	636.045	639.776	640.045	NaN
640.018	4	rest.jpg	NaN	NaN	640.018	643.755	644.018	NaN
644.003	4	rest.jpg	NaN	NaN	644.003	647.734	648.003	NaN
648.019	4	Aircraft1_90%_1.jpg	0	0.9	648.019	651.751	649.918	0
652.031	4	Aircraft1_90%_47.jpg	0	0.9	652.031	655.765	655.293	0
656.043	4	Aircraft1_90%_40.jpg	0	0.9	656.043	659.779	659.26	0
660.039	4	Aircraft1_90%_27.jpg	0	0.9	660.039	663.771	664.039	0
664.032	4	Aircraft2_90%_35.jpg	1	0.9	664.032	667.763	668.032	1
668.042	4	rest.jpg	NaN	NaN	668.042	671.773	672.042	NaN
672.005	4	rest.jpg	NaN	NaN	672.005	675.737	676.005	NaN
676.01	4	rest.jpg	NaN	NaN	676.01	679.742	680.01	NaN
680.009	4	Aircraft2_70%_23.jpg	1	0.75	680.009	683.745	681.759	1
684.029	4	Aircraft1_70%_28.jpg	0	0.75	684.029	687.766	685.849	0
688.055	4	Aircraft2_70%_13.jpg	1	0.75	688.055	691.791	689.475	1
692.061	4	Aircraft1_70%_45.jpg	0	0.75	692.061	695.795	694.105	0
696.085	4	Aircraft1_70%_37.jpg	0	0.75	696.085	699.816	697.49	0
700.099	4	rest.jpg	NaN	NaN	700.099	703.829	704.099	NaN
704.08	4	rest.jpg	NaN	NaN	704.08	707.809	708.08	NaN
708.057	4	rest.jpg	NaN	NaN	708.057	711.786	712.057	NaN
712.054	4	Aircraft1_10%_25.jpg	0	0.1	712.054	715.786	713.073	0
716.055	4	Aircraft2_10%_49.jpg	1	0.1	716.055	719.789	717.17	1
720.061	4	Aircraft2_10%_10.jpg	1	0.1	720.061	723.79	721.598	1
724.079	4	Aircraft2_10%_12.jpg	1	0.1	724.079	727.808	725.294	1
728.075	4	Aircraft2_10%_7.jpg	1	0.1	728.075	731.806	729.414	1
732.07	4	rest.jpg	NaN	NaN	732.07	735.801	736.07	NaN
736.031	4	rest.jpg	NaN	NaN	736.031	739.765	740.031	NaN
739.997	4	rest.jpg	NaN	NaN	739.997	743.73	743.997	NaN
744.011	4	Aircraft2_90%_17.jpg	1	0.9	744.011	747.741	746.749	1
748.017	4	Aircraft2_90%_11.jpg	1	0.9	748.017	751.747	751.534	1
752.029	4	Aircraft1_90%_20.jpg	0	0.9	752.029	755.761	754.644	0
756.023	4	Aircraft2_90%_47.jpg	1	0.9	756.023	759.76	757.66	1
760.041	4	Aircraft2_90%_45.jpg	1	0.9	760.041	763.773	763.277	1
764.056	4	rest.jpg	NaN	NaN	764.056	767.785	768.056	NaN
768.017	4	rest.jpg	NaN	NaN	768.017	771.745	772.017	NaN
771.987	4	rest.jpg	NaN	NaN	771.987	775.724	775.987	NaN
775.991	4	Aircraft1_70%_38.jpg	0	0.75	775.991	779.723	777.703	0
779.986	4	Aircraft2_70%_21.jpg	1	0.75	779.986	783.723	782.067	1
783.993	4	Aircraft1_70%_16.jpg	0	0.75	783.993	787.728	786.199	0
787.995	4	Aircraft1_70%_46.jpg	0	0.75	787.995	791.725	790.103	0
792.006	4	Aircraft2_70%_40.jpg	1	0.75	792.006	795.739	794.856	1
796.016	4	rest.jpg	NaN	NaN	796.016	799.748	800.016	NaN
799.98	4	rest.jpg	NaN	NaN	799.98	803.715	803.98	NaN
803.947	4	rest.jpg	NaN	NaN	803.947	807.678	807.947	NaN
807.945	4	Aircraft1_10%_3.jpg	0	0.1	807.945	811.68	809.311	0
811.944	4	Aircraft2_10%_28.jpg	1	0.1	811.944	815.68	813.466	1
815.948	4	Aircraft1_10%_24.jpg	0	0.1	815.948	819.682	817.045	0
819.963	4	Aircraft2_10%_39.jpg	1	0.1	819.963	823.698	821.343	1
823.962	4	Aircraft2_10%_8.jpg	1	0.1	823.962	827.692	825.546	1
827.969	4	rest.jpg	NaN	NaN	827.969	831.707	831.969	NaN
831.951	4	rest.jpg	NaN	NaN	831.951	835.682	835.951	NaN
835.931	4	rest.jpg	NaN	NaN	835.931	839.661	839.931	NaN
839.922	4	Aircraft1_90%_36.jpg	0	0.9	839.922	843.651	843.435	0
843.924	4	Aircraft1_90%_35.jpg	0	0.9	843.924	847.66	846.938	0
847.926	4	Aircraft2_90%_3.jpg	1	0.9	847.926	851.656	851.926	1
851.935	4	Aircraft1_90%_5.jpg	0	0.9	851.935	855.669	855.222	0
855.954	4	Aircraft1_90%_48.jpg	0	0.9	855.954	859.684	858.578	0
859.955	4	rest.jpg	NaN	NaN	859.955	863.685	863.955	NaN
863.931	4	rest.jpg	NaN	NaN	863.931	867.667	867.931	NaN
867.917	4	rest.jpg	NaN	NaN	867.917	871.646	871.917	NaN
871.939	4	Aircraft2_70%_30.jpg	1	0.75	871.939	875.669	874.141	1
875.959	4	Aircraft2_70%_27.jpg	1	0.75	875.959	879.692	877.432	1
879.961	4	Aircraft2_70%_50.jpg	1	0.75	879.961	883.695	881.825	1
883.962	4	Aircraft2_70%_29.jpg	1	0.75	883.962	887.694	885.94	1
887.985	4	Aircraft1_70%_6.jpg	0	0.75	887.985	891.717	890.056	0
891.988	4	rest.jpg	NaN	NaN	891.988	895.719	895.988	NaN
895.952	4	rest.jpg	NaN	NaN	895.952	899.688	899.952	NaN
899.933	4	rest.jpg	NaN	NaN	899.933	903.663	903.933	NaN
903.958	4	Aircraft2_10%_14.jpg	1	0.1	903.958	907.694	905.236	1
907.983	4	Aircraft2_10%_5.jpg	1	0.1	907.983	911.72	909.553	1
912.009	4	Aircraft2_10%_15.jpg	1	0.1	912.009	915.739	913.347	1
916.02	4	Aircraft2_10%_19.jpg	1	0.1	916.02	919.749	917.461	1
920.043	4	Aircraft1_10%_31.jpg	0	0.1	920.043	923.777	921.709	0
924.047	4	rest.jpg	NaN	NaN	924.047	927.776	928.047	NaN
928.01	4	rest.jpg	NaN	NaN	928.01	931.746	932.01	NaN
931.98	4	rest.jpg	NaN	NaN	931.98	935.712	935.98	NaN
935.979	4	Aircraft1_90%_2.jpg	0	0.9	935.979	939.713	938.543	0
939.98	4	Aircraft1_90%_39.jpg	0	0.9	939.98	943.71	942.141	0
943.996	4	Aircraft2_90%_26.jpg	1	0.9	943.996	947.732	945.412	1
947.999	4	Aircraft1_90%_15.jpg	0	0.9	947.999	951.732	950.478	0
951.999	4	Aircraft2_90%_16.jpg	1	0.9	951.999	955.737	955.315	1
956.023	4	rest.jpg	NaN	NaN	956.023	959.759	960.023	NaN
960.005	4	rest.jpg	NaN	NaN	960.005	963.743	964.005	NaN
963.973	4	rest.jpg	NaN	NaN	963.973	967.703	967.973	NaN
967.974	4	Aircraft1_70%_1.jpg	0	0.75	967.974	971.704	969.252	0
971.971	4	Aircraft1_70%_47.jpg	0	0.75	971.971	975.704	974.577	0
975.986	4	Aircraft1_70%_40.jpg	0	0.75	975.986	979.722	979.382	0
979.999	4	Aircraft1_70%_27.jpg	0	0.75	979.999	983.734	981.747	0
984.023	4	Aircraft2_70%_35.jpg	1	0.75	984.023	987.755	985.378	1
988.02	4	rest.jpg	NaN	NaN	988.02	991.752	992.02	NaN
991.998	4	rest.jpg	NaN	NaN	991.998	995.735	995.998	NaN
995.965	4	rest.jpg	NaN	NaN	995.965	999.697	999.965	NaN
