sub	run	block	trail	oneset	duration	stim_file	stim_lable	level of occlusion	stim_started	stim_stopped	key_time	key_fix
58	1	1	1	40.013	4	Aircraft1_10%_2.jpg	0	0.1	40.013	43.75	41.856	0
58	1	1	2	44.088	4	Aircraft1_10%_39.jpg	0	0.1	44.088	47.823	44.982	0
58	1	1	3	48.114	4	Aircraft2_10%_26.jpg	1	0.1	48.114	51.844	49.337	1
58	1	1	4	52.144	4	Aircraft1_10%_15.jpg	0	0.1	52.144	55.875	53.147	0
58	1	1	5	56.167	4	Aircraft2_10%_16.jpg	1	0.1	56.167	59.899	57.271	1
58	1	1	6	60.172	4	rest.jpg	n/a	n/a	60.172	63.904	64.172	n/a
58	1	1	7	64.151	4	rest.jpg	n/a	n/a	64.151	67.887	68.151	n/a
58	1	1	8	68.127	4	rest.jpg	n/a	n/a	68.127	71.857	72.127	n/a
58	1	2	9	72.144	4	Aircraft2_90%_14.jpg	1	0.9	72.144	75.874	73.729	1
58	1	2	10	76.161	4	Aircraft2_90%_5.jpg	1	0.9	76.161	79.891	76.924	1
58	1	2	11	80.16	4	Aircraft2_90%_15.jpg	1	0.9	80.16	83.892	80.941	1
58	1	2	12	84.182	4	Aircraft2_90%_19.jpg	1	0.9	84.182	87.918	85.117	1
58	1	2	13	88.243	4	Aircraft1_90%_31.jpg	0	0.9	88.243	91.975	90.661	0
58	1	2	14	92.264	4	rest.jpg	n/a	n/a	92.264	95.994	96.264	n/a
58	1	2	15	96.246	4	rest.jpg	n/a	n/a	96.246	99.976	100.246	n/a
58	1	2	16	100.231	4	rest.jpg	n/a	n/a	100.231	103.963	104.231	n/a
58	1	3	17	104.238	4	Aircraft2_70%_4.jpg	1	0.75	104.238	107.971	105.467	1
58	1	3	18	108.257	4	Aircraft1_70%_43.jpg	0	0.75	108.257	111.989	109.084	0
58	1	3	19	112.265	4	Aircraft1_70%_9.jpg	0	0.75	112.265	116	113.521	0
58	1	3	20	116.325	4	Aircraft1_70%_11.jpg	0	0.75	116.325	120.06	117.916	0
58	1	3	21	120.349	4	Aircraft1_70%_50.jpg	0	0.75	120.349	124.081	122.116	0
58	1	3	22	124.365	4	rest.jpg	n/a	n/a	124.365	128.118	128.365	n/a
58	1	3	23	128.352	4	rest.jpg	n/a	n/a	128.352	132.089	132.352	n/a
58	1	3	24	132.336	4	rest.jpg	n/a	n/a	132.336	136.067	136.336	n/a
58	1	4	25	136.338	4	Aircraft1_10%_36.jpg	0	0.1	136.338	140.068	137.725	0
58	1	4	26	140.363	4	Aircraft1_10%_35.jpg	0	0.1	140.363	144.094	141.058	0
58	1	4	27	144.381	4	Aircraft2_10%_3.jpg	1	0.1	144.381	148.125	145.448	1
58	1	4	28	148.46	4	Aircraft1_10%_5.jpg	0	0.1	148.46	152.19	149.264	0
58	1	4	29	152.48	4	Aircraft1_10%_48.jpg	0	0.1	152.48	156.212	153.277	0
58	1	4	30	156.496	4	rest.jpg	n/a	n/a	156.496	160.232	160.496	n/a
58	1	4	31	160.469	4	rest.jpg	n/a	n/a	160.469	164.2	164.469	n/a
58	1	4	32	164.432	4	rest.jpg	n/a	n/a	164.432	168.175	168.432	n/a
58	1	5	33	168.459	4	Aircraft1_90%_3.jpg	0	0.9	168.459	172.194	170.077	0
58	1	5	34	172.461	4	Aircraft2_90%_28.jpg	1	0.9	172.461	176.191	173.527	1
58	1	5	35	176.473	4	Aircraft1_90%_24.jpg	0	0.9	176.473	180.209	177.461	0
58	1	5	36	180.52	4	Aircraft2_90%_39.jpg	1	0.9	180.52	184.255	181.63	1
58	1	5	37	184.544	4	Aircraft2_90%_8.jpg	1	0.9	184.544	188.281	186.958	1
58	1	5	38	188.551	4	rest.jpg	n/a	n/a	188.551	192.283	192.551	n/a
58	1	5	39	192.531	4	rest.jpg	n/a	n/a	192.531	196.262	196.531	n/a
58	1	5	40	196.497	4	rest.jpg	n/a	n/a	196.497	200.227	200.497	n/a
58	1	6	41	200.518	4	Aircraft2_70%_18.jpg	1	0.75	200.518	204.25	202.156	1
58	1	6	42	204.535	4	Aircraft1_70%_29.jpg	0	0.75	204.535	208.267	206.966	0
58	1	6	43	208.558	4	Aircraft2_70%_1.jpg	1	0.75	208.558	212.29	210.276	1
58	1	6	44	212.579	4	Aircraft1_70%_26.jpg	0	0.75	212.579	216.311	214.393	0
58	1	6	45	216.643	4	Aircraft2_70%_34.jpg	1	0.75	216.643	220.375	218.136	1
58	1	6	46	220.648	4	rest.jpg	n/a	n/a	220.648	224.385	224.648	n/a
58	1	6	47	224.644	4	rest.jpg	n/a	n/a	224.644	228.374	228.644	n/a
58	1	6	48	228.608	4	rest.jpg	n/a	n/a	228.608	232.345	232.608	n/a
58	1	7	49	232.624	4	Aircraft2_10%_17.jpg	1	0.1	232.624	236.362	233.51	1
58	1	7	50	236.636	4	Aircraft2_10%_11.jpg	1	0.1	236.636	240.373	237.844	1
58	1	7	51	240.704	4	Aircraft1_10%_20.jpg	0	0.1	240.704	244.45	241.416	0
58	1	7	52	244.723	4	Aircraft2_10%_47.jpg	1	0.1	244.723	248.453	246.266	1
58	1	7	53	248.772	4	Aircraft2_10%_45.jpg	1	0.1	248.772	252.51	250.201	1
58	1	7	54	252.791	4	rest.jpg	n/a	n/a	252.791	256.524	256.791	n/a
58	1	7	55	256.758	4	rest.jpg	n/a	n/a	256.758	260.49	260.758	n/a
58	1	7	56	260.734	4	rest.jpg	n/a	n/a	260.734	264.47	264.734	n/a
58	1	8	57	264.737	4	Aircraft1_90%_25.jpg	0	0.9	264.737	268.473	266.313	0
58	1	8	58	268.785	4	Aircraft2_90%_49.jpg	1	0.9	268.785	272.52	270.466	1
58	1	8	59	272.8	4	Aircraft2_90%_10.jpg	1	0.9	272.8	276.536	275.378	1
58	1	8	60	276.803	4	Aircraft2_90%_12.jpg	1	0.9	276.803	280.539	279.924	1
58	1	8	61	280.827	4	Aircraft2_90%_7.jpg	1	0.9	280.827	284.559	281.985	1
58	1	8	62	284.845	4	rest.jpg	n/a	n/a	284.845	288.577	288.845	n/a
58	1	8	63	288.827	4	rest.jpg	n/a	n/a	288.827	292.557	292.827	n/a
58	1	8	64	292.791	4	rest.jpg	n/a	n/a	292.791	296.526	296.791	n/a
58	1	9	65	296.811	4	Aircraft1_70%_32.jpg	0	0.75	296.811	300.546	298.127	0
58	1	9	66	300.878	4	Aircraft1_70%_49.jpg	0	0.75	300.878	304.608	301.944	0
58	1	9	67	304.931	4	Aircraft2_70%_22.jpg	1	0.75	304.931	308.666	305.786	1
58	1	9	68	308.955	4	Aircraft1_70%_34.jpg	0	0.75	308.955	312.686	310.34	0
58	1	9	69	312.973	4	Aircraft1_70%_14.jpg	0	0.75	312.973	316.709	316.186	0
58	1	9	70	316.979	4	rest.jpg	n/a	n/a	316.979	320.716	320.979	n/a
58	1	9	71	320.965	4	rest.jpg	n/a	n/a	320.965	324.7	324.965	n/a
58	1	9	72	324.934	4	rest.jpg	n/a	n/a	324.934	328.672	328.934	n/a
58	1	10	73	328.947	4	Aircraft1_10%_1.jpg	0	0.1	328.947	332.682	329.678	0
58	1	10	74	332.953	4	Aircraft1_10%_47.jpg	0	0.1	332.953	336.691	334.161	0
58	1	10	75	336.976	4	Aircraft1_10%_40.jpg	0	0.1	336.976	340.711	338.3	0
58	1	10	76	341.028	4	Aircraft1_10%_27.jpg	0	0.1	341.028	344.76	342.336	0
58	1	10	77	345.041	4	Aircraft2_10%_35.jpg	1	0.1	345.041	348.777	346.213	1
58	1	10	78	349.059	4	rest.jpg	n/a	n/a	349.059	352.795	353.059	n/a
58	1	10	79	353.028	4	rest.jpg	n/a	n/a	353.028	356.763	357.028	n/a
58	1	10	80	357.014	4	rest.jpg	n/a	n/a	357.014	360.747	361.014	n/a
58	1	11	81	361.028	4	Aircraft1_90%_32.jpg	0	0.9	361.028	364.758	362.025	0
58	1	11	82	365.025	4	Aircraft1_90%_49.jpg	0	0.9	365.025	368.755	366.519	0
58	1	11	83	369.037	4	Aircraft2_90%_22.jpg	1	0.9	369.037	372.769	371.931	1
58	1	11	84	373.052	4	Aircraft1_90%_34.jpg	0	0.9	373.052	376.782	374.266	0
58	1	11	85	377.059	4	Aircraft1_90%_14.jpg	0	0.9	377.059	380.795	379.003	0
58	1	11	86	381.08	4	rest.jpg	n/a	n/a	381.08	384.81	385.08	n/a
58	1	11	87	385.044	4	rest.jpg	n/a	n/a	385.044	388.776	389.044	n/a
58	1	11	88	389.01	4	rest.jpg	n/a	n/a	389.01	392.746	393.01	n/a
58	1	12	89	393.048	4	Aircraft2_70%_24.jpg	1	0.75	393.048	396.779	394.215	1
58	1	12	90	397.06	4	Aircraft2_70%_2.jpg	1	0.75	397.06	400.796	398.251	1
58	1	12	91	401.097	4	Aircraft2_70%_43.jpg	1	0.75	401.097	404.832	403.496	1
58	1	12	92	405.121	4	Aircraft2_70%_46.jpg	1	0.75	405.121	408.851	408.066	1
58	1	12	93	409.175	4	Aircraft1_70%_42.jpg	0	0.75	409.175	412.905	410.26	0
58	1	12	94	413.174	4	rest.jpg	n/a	n/a	413.174	416.904	417.174	n/a
58	1	12	95	417.138	4	rest.jpg	n/a	n/a	417.138	420.868	421.138	n/a
58	1	12	96	421.113	4	rest.jpg	n/a	n/a	421.113	424.843	425.113	n/a
58	1	13	97	425.135	4	Aircraft2_10%_30.jpg	1	0.1	425.135	428.866	426.159	1
58	1	13	98	429.136	4	Aircraft2_10%_27.jpg	1	0.1	429.136	432.871	429.765	1
58	1	13	99	433.167	4	Aircraft2_10%_50.jpg	1	0.1	433.167	436.897	434.586	1
58	1	13	100	437.198	4	Aircraft2_10%_29.jpg	1	0.1	437.198	440.928	438.919	1
58	1	13	101	441.204	4	Aircraft1_10%_6.jpg	0	0.1	441.204	444.939	442.765	0
58	1	13	102	445.225	4	rest.jpg	n/a	n/a	445.225	448.955	449.225	n/a
58	1	13	103	449.187	4	rest.jpg	n/a	n/a	449.187	452.922	453.187	n/a
58	1	13	104	453.17	4	rest.jpg	n/a	n/a	453.17	456.905	457.17	n/a
58	1	14	105	457.21	4	Aircraft2_90%_18.jpg	1	0.9	457.21	460.941	458.753	1
58	1	14	106	461.224	4	Aircraft1_90%_29.jpg	0	0.9	461.224	464.954	462.673	0
58	1	14	107	465.276	4	Aircraft2_90%_1.jpg	1	0.9	465.276	469.011	466.727	1
58	1	14	108	469.319	4	Aircraft1_90%_26.jpg	0	0.9	469.319	473.049	472.5	0
58	1	14	109	473.317	4	Aircraft2_90%_34.jpg	1	0.9	473.317	477.053	474.547	1
58	1	14	110	477.324	4	rest.jpg	n/a	n/a	477.324	481.055	481.324	n/a
58	1	14	111	481.287	4	rest.jpg	n/a	n/a	481.287	485.023	485.287	n/a
58	1	14	112	485.255	4	rest.jpg	n/a	n/a	485.255	488.991	489.255	n/a
58	1	15	113	489.279	4	Aircraft1_70%_17.jpg	0	0.75	489.279	493.015	490.297	0
58	1	15	114	493.299	4	Aircraft2_70%_42.jpg	1	0.75	493.299	497.036	494.317	1
58	1	15	115	497.32	4	Aircraft2_70%_44.jpg	1	0.75	497.32	501.052	498.438	1
58	1	15	116	501.325	4	Aircraft1_70%_10.jpg	0	0.75	501.325	505.056	502.309	0
58	1	15	117	505.348	4	Aircraft2_70%_25.jpg	1	0.75	505.348	509.081	506.909	1
58	1	15	118	509.367	4	rest.jpg	n/a	n/a	509.367	513.097	513.367	n/a
58	1	15	119	513.348	4	rest.jpg	n/a	n/a	513.348	517.08	517.348	n/a
58	1	15	120	517.314	4	rest.jpg	n/a	n/a	517.314	521.045	521.314	n/a
58	1	16	121	521.342	4	Aircraft1_10%_38.jpg	0	0.1	521.342	525.077	522.006	0
58	1	16	122	525.365	4	Aircraft2_10%_21.jpg	1	0.1	525.365	529.095	526.55	1
58	1	16	123	529.37	4	Aircraft1_10%_16.jpg	0	0.1	529.37	533.1	530.69	0
58	1	16	124	533.414	4	Aircraft1_10%_46.jpg	0	0.1	533.414	537.146	534.524	0
58	1	16	125	537.427	4	Aircraft2_10%_40.jpg	1	0.1	537.427	541.157	538.862	1
58	1	16	126	541.442	4	rest.jpg	n/a	n/a	541.442	545.18	545.442	n/a
58	1	16	127	545.426	4	rest.jpg	n/a	n/a	545.426	549.162	549.426	n/a
58	1	16	128	549.396	4	rest.jpg	n/a	n/a	549.396	553.132	553.396	n/a
58	1	17	129	553.398	4	Aircraft2_90%_4.jpg	1	0.9	553.398	557.133	554.518	1
58	1	17	130	557.4	4	Aircraft1_90%_43.jpg	0	0.9	557.4	561.136	558.617	0
58	1	17	131	561.419	4	Aircraft1_90%_9.jpg	0	0.9	561.419	565.149	563.733	0
58	1	17	132	565.414	4	Aircraft1_90%_11.jpg	0	0.9	565.414	569.151	568.351	0
58	1	17	133	569.466	4	Aircraft1_90%_50.jpg	0	0.9	569.466	573.199	573.466	0
58	1	17	134	573.487	4	rest.jpg	n/a	n/a	573.487	577.224	577.487	n/a
58	1	17	135	577.468	4	rest.jpg	n/a	n/a	577.468	581.204	581.468	n/a
58	1	17	136	581.453	4	rest.jpg	n/a	n/a	581.453	585.185	585.453	n/a
58	1	18	137	585.458	4	Aircraft1_70%_12.jpg	0	0.75	585.458	589.187	586.326	0
58	1	18	138	589.472	4	Aircraft2_70%_32.jpg	1	0.75	589.472	593.203	591.8	1
58	1	18	139	593.486	4	Aircraft2_70%_48.jpg	1	0.75	593.486	597.218	594.66	1
58	1	18	140	597.556	4	Aircraft1_70%_19.jpg	0	0.75	597.556	601.287	598.455	0
58	1	18	141	601.56	4	Aircraft1_70%_33.jpg	0	0.75	601.56	605.296	603.935	0
58	1	18	142	605.566	4	rest.jpg	n/a	n/a	605.566	609.301	609.566	n/a
58	1	18	143	609.535	4	rest.jpg	n/a	n/a	609.535	613.27	613.535	n/a
58	1	18	144	613.504	4	rest.jpg	n/a	n/a	613.504	617.24	617.504	n/a
58	1	19	145	617.527	4	Aircraft2_10%_23.jpg	1	0.1	617.527	621.257	618.513	1
58	1	19	146	621.528	4	Aircraft1_10%_28.jpg	0	0.1	621.528	625.265	622.639	0
58	1	19	147	625.558	4	Aircraft2_10%_13.jpg	1	0.1	625.558	629.288	628.235	1
58	1	19	148	629.559	4	Aircraft1_10%_45.jpg	0	0.1	629.559	633.296	631.467	0
58	1	19	149	633.571	4	Aircraft1_10%_37.jpg	0	0.1	633.571	637.301	634.682	0
58	1	19	150	637.587	4	rest.jpg	n/a	n/a	637.587	641.318	641.587	n/a
58	1	19	151	641.57	4	rest.jpg	n/a	n/a	641.57	645.302	645.57	n/a
58	1	19	152	645.536	4	rest.jpg	n/a	n/a	645.536	649.273	649.536	n/a
58	1	20	153	649.54	4	Aircraft2_90%_33.jpg	1	0.9	649.54	653.276	651.949	1
58	1	20	154	653.543	4	Aircraft2_90%_38.jpg	1	0.9	653.543	657.278	656.105	1
58	1	20	155	657.563	4	Aircraft1_90%_30.jpg	0	0.9	657.563	661.299	661.082	0
58	1	20	156	661.581	4	Aircraft1_90%_41.jpg	0	0.9	661.581	665.313	664.888	0
58	1	20	157	665.599	4	Aircraft1_90%_18.jpg	0	0.9	665.599	669.335	666.904	0
58	1	20	158	669.605	4	rest.jpg	n/a	n/a	669.605	673.341	673.605	n/a
58	1	20	159	673.584	4	rest.jpg	n/a	n/a	673.584	677.316	677.584	n/a
58	1	20	160	677.565	4	rest.jpg	n/a	n/a	677.565	681.298	681.565	n/a
58	1	21	161	681.604	4	Aircraft2_70%_9.jpg	1	0.75	681.604	685.341	683.285	1
58	1	21	162	685.61	4	Aircraft2_70%_6.jpg	1	0.75	685.61	689.341	687.505	1
58	1	21	163	689.632	4	Aircraft1_70%_23.jpg	0	0.75	689.632	693.364	691.308	0
58	1	21	164	693.664	4	Aircraft1_70%_21.jpg	0	0.75	693.664	697.397	696.163	0
58	1	21	165	697.68	4	Aircraft2_70%_36.jpg	1	0.75	697.68	701.41	700.568	1
58	1	21	166	701.697	4	rest.jpg	n/a	n/a	701.697	705.43	705.697	n/a
58	1	21	167	705.663	4	rest.jpg	n/a	n/a	705.663	709.399	709.663	n/a
58	1	21	168	709.644	4	rest.jpg	n/a	n/a	709.644	713.374	713.644	n/a
58	1	22	169	713.648	4	Aircraft2_10%_41.jpg	1	0.1	713.648	717.384	714.469	1
58	1	22	170	717.669	4	Aircraft1_10%_22.jpg	0	0.1	717.669	721.404	718.851	0
58	1	22	171	721.721	4	Aircraft1_10%_44.jpg	0	0.1	721.721	725.451	723.335	0
58	1	22	172	725.737	4	Aircraft1_10%_1.jpg	0	0.1	725.737	729.471	727.307	0
58	1	22	173	729.74	4	Aircraft2_10%_37.jpg	1	0.1	729.74	733.472	730.482	1
58	1	22	174	733.756	4	rest.jpg	n/a	n/a	733.756	737.486	737.756	n/a
58	1	22	175	737.719	4	rest.jpg	n/a	n/a	737.719	741.453	741.719	n/a
58	1	22	176	741.702	4	rest.jpg	n/a	n/a	741.702	745.438	745.702	n/a
58	1	23	177	745.723	4	Aircraft2_90%_31.jpg	1	0.9	745.723	749.455	747.456	1
58	1	23	178	749.739	4	Aircraft1_90%_4.jpg	0	0.9	749.739	753.469	751.209	0
58	1	23	179	753.775	4	Aircraft2_90%_20.jpg	1	0.9	753.775	757.506	755.715	1
58	1	23	180	757.825	4	Aircraft1_90%_7.jpg	0	0.9	757.825	761.56	758.623	0
58	1	23	181	761.845	4	Aircraft1_90%_8.jpg	0	0.9	761.845	765.576	765.003	0
58	1	23	182	765.862	4	rest.jpg	n/a	n/a	765.862	769.598	769.862	n/a
58	1	23	183	769.845	4	rest.jpg	n/a	n/a	769.845	773.581	773.845	n/a
58	1	23	184	773.829	4	rest.jpg	n/a	n/a	773.829	777.559	777.829	n/a
58	1	24	185	777.833	4	Aircraft2_70%_14.jpg	1	0.75	777.833	781.566	779.286	1
58	1	24	186	781.857	4	Aircraft2_70%_5.jpg	1	0.75	781.857	785.587	783.508	1
58	1	24	187	785.861	4	Aircraft2_70%_15.jpg	1	0.75	785.861	789.591	787.097	1
58	1	24	188	789.885	4	Aircraft2_70%_19.jpg	1	0.75	789.885	793.62	792.185	1
58	1	24	189	793.91	4	Aircraft1_70%_31.jpg	0	0.75	793.91	797.642	797.91	0
58	1	24	190	797.912	4	rest.jpg	n/a	n/a	797.912	801.641	801.912	n/a
58	1	24	191	801.887	4	rest.jpg	n/a	n/a	801.887	805.622	805.887	n/a
58	1	24	192	805.869	4	rest.jpg	n/a	n/a	805.869	809.602	809.869	n/a
58	1	25	193	809.891	4	Aircraft2_10%_9.jpg	1	0.1	809.891	813.624	810.643	1
58	1	25	194	814	4	Aircraft2_10%_6.jpg	1	0.1	814	817.735	814.672	1
58	1	25	195	818.011	4	Aircraft1_10%_23.jpg	0	0.1	818.011	821.747	818.848	0
58	1	25	196	822.027	4	Aircraft1_10%_21.jpg	0	0.1	822.027	825.764	822.747	0
58	1	25	197	826.055	4	Aircraft2_10%_36.jpg	1	0.1	826.055	829.792	827.088	1
58	1	25	198	830.082	4	rest.jpg	n/a	n/a	830.082	833.819	834.082	n/a
58	1	25	199	834.072	4	rest.jpg	n/a	n/a	834.072	837.808	838.072	n/a
58	1	25	200	838.042	4	rest.jpg	n/a	n/a	838.042	841.775	842.042	n/a
58	1	26	201	842.045	4	Aircraft2_90%_24.jpg	1	0.9	842.045	845.775	843.959	1
58	1	26	202	846.056	4	Aircraft2_90%_2.jpg	1	0.9	846.056	849.788	847.71	1
58	1	26	203	850.06	4	Aircraft2_90%_43.jpg	1	0.9	850.06	853.795	852.038	1
58	1	26	204	854.082	4	Aircraft2_90%_46.jpg	1	0.9	854.082	857.814	855.265	1
58	1	26	205	858.082	4	Aircraft1_90%_42.jpg	0	0.9	858.082	861.819	859.965	0
58	1	26	206	862.094	4	rest.jpg	n/a	n/a	862.094	865.824	866.094	n/a
58	1	26	207	866.061	4	rest.jpg	n/a	n/a	866.061	869.793	870.061	n/a
58	1	26	208	870.044	4	rest.jpg	n/a	n/a	870.044	873.773	874.044	n/a
58	1	27	209	874.048	4	Aircraft1_70%_3.jpg	0	0.75	874.048	877.778	875.493	0
58	1	27	210	878.051	4	Aircraft2_70%_28.jpg	1	0.75	878.051	881.786	878.874	1
58	1	27	211	882.065	4	Aircraft1_70%_24.jpg	0	0.75	882.065	885.798	883.052	0
58	1	27	212	886.089	4	Aircraft2_70%_39.jpg	1	0.75	886.089	889.822	888.119	1
58	1	27	213	890.119	4	Aircraft2_70%_8.jpg	1	0.75	890.119	893.855	892.039	1
58	1	27	214	894.143	4	rest.jpg	n/a	n/a	894.143	897.873	898.143	n/a
58	1	27	215	898.109	4	rest.jpg	n/a	n/a	898.109	901.839	902.109	n/a
58	1	27	216	902.091	4	rest.jpg	n/a	n/a	902.091	905.823	906.091	n/a
58	1	28	217	906.11	4	Aircraft1_10%_12.jpg	0	0.1	906.11	909.841	907.648	0
58	1	28	218	910.115	4	Aircraft2_10%_32.jpg	1	0.1	910.115	913.851	910.827	1
58	1	28	219	914.145	4	Aircraft2_10%_48.jpg	1	0.1	914.145	917.882	914.901	1
58	1	28	220	918.171	4	Aircraft1_10%_19.jpg	0	0.1	918.171	921.901	918.932	0
58	1	28	221	922.195	4	Aircraft1_10%_33.jpg	0	0.1	922.195	925.925	922.82	0
58	1	28	222	926.211	4	rest.jpg	n/a	n/a	926.211	929.946	930.211	n/a
58	1	28	223	930.194	4	rest.jpg	n/a	n/a	930.194	933.926	934.194	n/a
58	1	28	224	934.179	4	rest.jpg	n/a	n/a	934.179	937.917	938.179	n/a
58	1	29	225	938.186	4	Aircraft1_90%_17.jpg	0	0.9	938.186	941.922	940.224	0
58	1	29	226	942.198	4	Aircraft2_90%_42.jpg	1	0.9	942.198	945.934	944.465	1
58	1	29	227	946.204	4	Aircraft2_90%_44.jpg	1	0.9	946.204	949.934	947.178	1
58	1	29	228	950.221	4	Aircraft1_90%_10.jpg	0	0.9	950.221	953.951	951.96	0
58	1	29	229	954.235	4	Aircraft2_90%_25.jpg	1	0.9	954.235	957.972	956.16	1
58	1	29	230	958.243	4	rest.jpg	n/a	n/a	958.243	961.978	962.243	n/a
58	1	29	231	962.231	4	rest.jpg	n/a	n/a	962.231	965.967	966.231	n/a
58	1	29	232	966.218	4	rest.jpg	n/a	n/a	966.218	969.951	970.218	n/a
58	1	30	233	970.221	4	Aircraft1_70%_25.jpg	0	0.75	970.221	973.956	971.275	0
58	1	30	234	974.241	4	Aircraft2_70%_49.jpg	1	0.75	974.241	977.98	976.1	1
58	1	30	235	978.252	4	Aircraft2_70%_10.jpg	1	0.75	978.252	981.988	979.176	1
58	1	30	236	982.279	4	Aircraft2_70%_12.jpg	1	0.75	982.279	986.011	982.94	1
58	1	30	237	986.283	4	Aircraft2_70%_7.jpg	1	0.75	986.283	990.013	987.461	1
58	1	30	238	990.283	4	rest.jpg	n/a	n/a	990.283	994.018	994.283	n/a
58	1	30	239	994.268	4	rest.jpg	n/a	n/a	994.268	998.006	998.268	n/a
58	1	30	240	998.24	4	rest.jpg	n/a	n/a	998.24	1001.975	1002.24	n/a
