sub	run	block	trail	oneset	duration	stim_file	stim_lable	level of occlusion	stim_started	stim_stopped	key_time	key_fix
9	1	1	1	40.04	4	Aircraft1_10%_2.jpg	0	0.1	40.04	43.777	42.103	0
9	1	1	2	44.07	4	Aircraft1_10%_39.jpg	0	0.1	44.07	47.805	46.17	0
9	1	1	3	48.119	4	Aircraft2_10%_26.jpg	1	0.1	48.119	51.85	50.053	1
9	1	1	4	52.177	4	Aircraft1_10%_15.jpg	0	0.1	52.177	55.907	54.045	0
9	1	1	5	56.202	4	Aircraft2_10%_16.jpg	1	0.1	56.202	59.935	57.649	1
9	1	1	6	60.25	4	rest.jpg	n/a	n/a	60.25	63.985	64.25	n/a
9	1	1	7	64.23	4	rest.jpg	n/a	n/a	64.23	67.961	68.23	n/a
9	1	1	8	68.21	4	rest.jpg	n/a	n/a	68.21	71.943	72.21	n/a
9	1	2	9	72.265	4	Aircraft2_90%_14.jpg	1	0.9	72.265	76.002	74.923	1
9	1	2	10	76.283	4	Aircraft2_90%_5.jpg	1	0.9	76.283	80.014	77.885	1
9	1	2	11	80.296	4	Aircraft2_90%_15.jpg	1	0.9	80.296	84.026	82.598	1
9	1	2	12	84.326	4	Aircraft2_90%_19.jpg	1	0.9	84.326	88.059	86.633	1
9	1	2	13	88.341	4	Aircraft1_90%_31.jpg	0	0.9	88.341	92.071	91.156	0
9	1	2	14	92.357	4	rest.jpg	n/a	n/a	92.357	96.087	96.357	n/a
9	1	2	15	96.331	4	rest.jpg	n/a	n/a	96.331	100.066	100.331	n/a
9	1	2	16	100.316	4	rest.jpg	n/a	n/a	100.316	104.048	104.316	n/a
9	1	3	17	104.376	4	Aircraft2_70%_4.jpg	1	0.75	104.376	108.108	106.473	1
9	1	3	18	108.399	4	Aircraft1_70%_43.jpg	0	0.75	108.399	112.134	111.283	0
9	1	3	19	112.441	4	Aircraft1_70%_9.jpg	0	0.75	112.441	116.173	114.779	0
9	1	3	20	116.454	4	Aircraft1_70%_11.jpg	0	0.75	116.454	120.186	118.387	0
9	1	3	21	120.498	4	Aircraft1_70%_50.jpg	0	0.75	120.498	124.234	121.687	0
9	1	3	22	124.515	4	rest.jpg	n/a	n/a	124.515	128.252	128.515	n/a
9	1	3	23	128.503	4	rest.jpg	n/a	n/a	128.503	132.235	132.503	n/a
9	1	3	24	132.478	4	rest.jpg	n/a	n/a	132.478	136.21	136.478	n/a
9	1	4	25	136.489	4	Aircraft1_10%_36.jpg	0	0.1	136.489	140.224	138.145	0
9	1	4	26	140.515	4	Aircraft1_10%_35.jpg	0	0.1	140.515	144.248	141.563	0
9	1	4	27	144.57	4	Aircraft2_10%_3.jpg	1	0.1	144.57	148.3	145.742	1
9	1	4	28	148.623	4	Aircraft1_10%_5.jpg	0	0.1	148.623	152.354	149.502	0
9	1	4	29	152.647	4	Aircraft1_10%_48.jpg	0	0.1	152.647	156.38	153.593	0
9	1	4	30	156.661	4	rest.jpg	n/a	n/a	156.661	160.394	160.661	n/a
9	1	4	31	160.635	4	rest.jpg	n/a	n/a	160.635	164.371	164.635	n/a
9	1	4	32	164.605	4	rest.jpg	n/a	n/a	164.605	168.334	168.605	n/a
9	1	5	33	168.658	4	Aircraft1_90%_3.jpg	0	0.9	168.658	172.388	170.141	0
9	1	5	34	172.703	4	Aircraft2_90%_28.jpg	1	0.9	172.703	176.436	174.65	1
9	1	5	35	176.717	4	Aircraft1_90%_24.jpg	0	0.9	176.717	180.452	178.71	0
9	1	5	36	180.729	4	Aircraft2_90%_39.jpg	1	0.9	180.729	184.462	182.634	1
9	1	5	37	184.771	4	Aircraft2_90%_8.jpg	1	0.9	184.771	188.504	187.256	1
9	1	5	38	188.771	4	rest.jpg	n/a	n/a	188.771	192.501	192.771	n/a
9	1	5	39	192.733	4	rest.jpg	n/a	n/a	192.733	196.464	196.733	n/a
9	1	5	40	196.709	4	rest.jpg	n/a	n/a	196.709	200.446	200.709	n/a
9	1	6	41	200.727	4	Aircraft2_70%_18.jpg	1	0.75	200.727	204.463	202.082	1
9	1	6	42	204.787	4	Aircraft1_70%_29.jpg	0	0.75	204.787	208.522	207.152	0
9	1	6	43	208.992	4	Aircraft2_70%_1.jpg	1	0.75	208.992	212.723	211.553	1
9	1	6	44	213.035	4	Aircraft1_70%_26.jpg	0	0.75	213.035	216.767	214.714	0
9	1	6	45	217.09	4	Aircraft2_70%_34.jpg	1	0.75	217.09	220.82	219.291	1
9	1	6	46	221.094	4	rest.jpg	n/a	n/a	221.094	224.83	225.094	n/a
9	1	6	47	225.064	4	rest.jpg	n/a	n/a	225.064	228.794	229.064	n/a
9	1	6	48	229.028	4	rest.jpg	n/a	n/a	229.028	232.765	233.028	n/a
9	1	7	49	233.05	4	Aircraft2_10%_17.jpg	1	0.1	233.05	236.78	234.424	1
9	1	7	50	237.061	4	Aircraft2_10%_11.jpg	1	0.1	237.061	240.794	237.983	1
9	1	7	51	241.112	4	Aircraft1_10%_20.jpg	0	0.1	241.112	244.843	242.453	0
9	1	7	52	245.162	4	Aircraft2_10%_47.jpg	1	0.1	245.162	248.898	246.587	1
9	1	7	53	249.208	4	Aircraft2_10%_45.jpg	1	0.1	249.208	252.94	250.344	1
9	1	7	54	253.22	4	rest.jpg	n/a	n/a	253.22	256.953	257.22	n/a
9	1	7	55	257.184	4	rest.jpg	n/a	n/a	257.184	260.92	261.184	n/a
9	1	7	56	261.152	4	rest.jpg	n/a	n/a	261.152	264.882	265.152	n/a
9	1	8	57	265.196	4	Aircraft1_90%_25.jpg	0	0.9	265.196	268.927	266.771	0
9	1	8	58	269.273	4	Aircraft2_90%_49.jpg	1	0.9	269.273	273.008	270.993	1
9	1	8	59	273.295	4	Aircraft2_90%_10.jpg	1	0.9	273.295	277.03	275.726	1
9	1	8	60	277.352	4	Aircraft2_90%_12.jpg	1	0.9	277.352	281.082	279.07	1
9	1	8	61	281.382	4	Aircraft2_90%_7.jpg	1	0.9	281.382	285.12	283.636	1
9	1	8	62	285.392	4	rest.jpg	n/a	n/a	285.392	289.122	289.392	n/a
9	1	8	63	289.356	4	rest.jpg	n/a	n/a	289.356	293.086	293.356	n/a
9	1	8	64	293.32	4	rest.jpg	n/a	n/a	293.32	297.051	297.32	n/a
9	1	9	65	297.361	4	Aircraft1_70%_32.jpg	0	0.75	297.361	301.099	299.82	0
9	1	9	66	301.389	4	Aircraft1_70%_49.jpg	0	0.75	301.389	305.122	302.78	0
9	1	9	67	305.405	4	Aircraft2_70%_22.jpg	1	0.75	305.405	309.134	307.39	1
9	1	9	68	309.42	4	Aircraft1_70%_34.jpg	0	0.75	309.42	313.155	311.575	0
9	1	9	69	313.472	4	Aircraft1_70%_14.jpg	0	0.75	313.472	317.204	315.125	0
9	1	9	70	317.475	4	rest.jpg	n/a	n/a	317.475	321.205	321.475	n/a
9	1	9	71	321.438	4	rest.jpg	n/a	n/a	321.438	325.168	325.438	n/a
9	1	9	72	325.401	4	rest.jpg	n/a	n/a	325.401	329.134	329.401	n/a
9	1	10	73	329.43	4	Aircraft1_10%_1.jpg	0	0.1	329.43	333.16	330.367	0
9	1	10	74	333.449	4	Aircraft1_10%_47.jpg	0	0.1	333.449	337.182	334.311	0
9	1	10	75	337.504	4	Aircraft1_10%_40.jpg	0	0.1	337.504	341.241	338.306	0
9	1	10	76	341.54	4	Aircraft1_10%_27.jpg	0	0.1	341.54	345.275	342.442	0
9	1	10	77	345.597	4	Aircraft2_10%_35.jpg	1	0.1	345.597	349.33	346.639	1
9	1	10	78	349.601	4	rest.jpg	n/a	n/a	349.601	353.332	353.601	n/a
9	1	10	79	353.582	4	rest.jpg	n/a	n/a	353.582	357.319	357.582	n/a
9	1	10	80	357.565	4	rest.jpg	n/a	n/a	357.565	361.303	361.565	n/a
9	1	11	81	361.589	4	Aircraft1_90%_32.jpg	0	0.9	361.589	365.319	363.128	0
9	1	11	82	365.633	4	Aircraft1_90%_49.jpg	0	0.9	365.633	369.363	366.93	0
9	1	11	83	369.664	4	Aircraft2_90%_22.jpg	1	0.9	369.664	373.4	371.742	1
9	1	11	84	373.71	4	Aircraft1_90%_34.jpg	0	0.9	373.71	377.446	376.009	0
9	1	11	85	377.769	4	Aircraft1_90%_14.jpg	0	0.9	377.769	381.498	380.459	0
9	1	11	86	381.768	4	rest.jpg	n/a	n/a	381.768	385.504	385.768	n/a
9	1	11	87	385.749	4	rest.jpg	n/a	n/a	385.749	389.48	389.749	n/a
9	1	11	88	389.729	4	rest.jpg	n/a	n/a	389.729	393.465	393.729	n/a
9	1	12	89	393.779	4	Aircraft2_70%_24.jpg	1	0.75	393.779	397.509	395.047	1
9	1	12	90	397.824	4	Aircraft2_70%_2.jpg	1	0.75	397.824	401.557	399.893	1
9	1	12	91	401.875	4	Aircraft2_70%_43.jpg	1	0.75	401.875	405.612	402.721	1
9	1	12	92	405.935	4	Aircraft2_70%_46.jpg	1	0.75	405.935	409.676	406.764	1
9	1	12	93	409.97	4	Aircraft1_70%_42.jpg	0	0.75	409.97	413.705	411.439	0
9	1	12	94	413.99	4	rest.jpg	n/a	n/a	413.99	417.732	417.99	n/a
9	1	12	95	417.977	4	rest.jpg	n/a	n/a	417.977	421.71	421.977	n/a
9	1	12	96	421.958	4	rest.jpg	n/a	n/a	421.958	425.697	425.958	n/a
9	1	13	97	425.995	4	Aircraft2_10%_30.jpg	1	0.1	425.995	429.727	427.804	1
9	1	13	98	430.042	4	Aircraft2_10%_27.jpg	1	0.1	430.042	433.777	431.311	1
9	1	13	99	434.082	4	Aircraft2_10%_50.jpg	1	0.1	434.082	437.817	434.963	1
9	1	13	100	438.121	4	Aircraft2_10%_29.jpg	1	0.1	438.121	441.851	439.257	1
9	1	13	101	442.176	4	Aircraft1_10%_6.jpg	0	0.1	442.176	445.908	443.023	0
9	1	13	102	446.2	4	rest.jpg	n/a	n/a	446.2	449.931	450.2	n/a
9	1	13	103	450.183	4	rest.jpg	n/a	n/a	450.183	453.918	454.183	n/a
9	1	13	104	454.163	4	rest.jpg	n/a	n/a	454.163	457.894	458.163	n/a
9	1	14	105	458.197	4	Aircraft2_90%_18.jpg	1	0.9	458.197	461.931	460.726	1
9	1	14	106	462.219	4	Aircraft1_90%_29.jpg	0	0.9	462.219	465.952	464.511	0
9	1	14	107	466.275	4	Aircraft2_90%_1.jpg	1	0.9	466.275	470.007	467.636	1
9	1	14	108	470.328	4	Aircraft1_90%_26.jpg	0	0.9	470.328	474.06	472.411	0
9	1	14	109	474.329	4	Aircraft2_90%_34.jpg	1	0.9	474.329	478.064	475.748	1
9	1	14	110	478.336	4	rest.jpg	n/a	n/a	478.336	482.066	482.336	n/a
9	1	14	111	482.316	4	rest.jpg	n/a	n/a	482.316	486.052	486.316	n/a
9	1	14	112	486.281	4	rest.jpg	n/a	n/a	486.281	490.012	490.281	n/a
9	1	15	113	490.296	4	Aircraft1_70%_17.jpg	0	0.75	490.296	494.031	492.294	0
9	1	15	114	494.348	4	Aircraft2_70%_42.jpg	1	0.75	494.348	498.078	495.717	1
9	1	15	115	498.391	4	Aircraft2_70%_44.jpg	1	0.75	498.391	502.121	499.356	1
9	1	15	116	502.451	4	Aircraft1_70%_10.jpg	0	0.75	502.451	506.186	503.774	0
9	1	15	117	506.479	4	Aircraft2_70%_25.jpg	1	0.75	506.479	510.214	508.354	1
9	1	15	118	510.479	4	rest.jpg	n/a	n/a	510.479	514.209	514.479	n/a
9	1	15	119	514.454	4	rest.jpg	n/a	n/a	514.454	518.184	518.454	n/a
9	1	15	120	518.416	4	rest.jpg	n/a	n/a	518.416	522.15	522.416	n/a
9	1	16	121	522.443	4	Aircraft1_10%_38.jpg	0	0.1	522.443	526.176	523.41	0
9	1	16	122	526.46	4	Aircraft2_10%_21.jpg	1	0.1	526.46	530.193	527.461	1
9	1	16	123	530.54	4	Aircraft1_10%_16.jpg	0	0.1	530.54	534.275	531.833	0
9	1	16	124	534.564	4	Aircraft1_10%_46.jpg	0	0.1	534.564	538.296	535.26	0
9	1	16	125	538.58	4	Aircraft2_10%_40.jpg	1	0.1	538.58	542.312	539.59	1
9	1	16	126	542.593	4	rest.jpg	n/a	n/a	542.593	546.329	546.593	n/a
9	1	16	127	546.561	4	rest.jpg	n/a	n/a	546.561	550.298	550.561	n/a
9	1	16	128	550.529	4	rest.jpg	n/a	n/a	550.529	554.262	554.529	n/a
9	1	17	129	554.571	4	Aircraft2_90%_4.jpg	1	0.9	554.571	558.303	556.914	1
9	1	17	130	558.572	4	Aircraft1_90%_43.jpg	0	0.9	558.572	562.307	559.776	0
9	1	17	131	562.596	4	Aircraft1_90%_9.jpg	0	0.9	562.596	566.328	563.984	0
9	1	17	132	566.607	4	Aircraft1_90%_11.jpg	0	0.9	566.607	570.34	568.198	0
9	1	17	133	570.644	4	Aircraft1_90%_50.jpg	0	0.9	570.644	574.379	572.233	0
9	1	17	134	574.645	4	rest.jpg	n/a	n/a	574.645	578.381	578.645	n/a
9	1	17	135	578.625	4	rest.jpg	n/a	n/a	578.625	582.355	582.625	n/a
9	1	17	136	582.591	4	rest.jpg	n/a	n/a	582.591	586.321	586.591	n/a
9	1	18	137	586.645	4	Aircraft1_70%_12.jpg	0	0.75	586.645	590.374	588.059	0
9	1	18	138	590.659	4	Aircraft2_70%_32.jpg	1	0.75	590.659	594.389	591.745	1
9	1	18	139	594.686	4	Aircraft2_70%_48.jpg	1	0.75	594.686	598.422	596.514	1
9	1	18	140	598.746	4	Aircraft1_70%_19.jpg	0	0.75	598.746	602.478	599.862	0
9	1	18	141	602.8	4	Aircraft1_70%_33.jpg	0	0.75	602.8	606.53	604.865	0
9	1	18	142	606.802	4	rest.jpg	n/a	n/a	606.802	610.537	610.802	n/a
9	1	18	143	610.77	4	rest.jpg	n/a	n/a	610.77	614.502	614.77	n/a
9	1	18	144	614.736	4	rest.jpg	n/a	n/a	614.736	618.466	618.736	n/a
9	1	19	145	618.757	4	Aircraft2_10%_23.jpg	1	0.1	618.757	622.489	621.004	1
9	1	19	146	622.775	4	Aircraft1_10%_28.jpg	0	0.1	622.775	626.504	623.903	0
9	1	19	147	626.799	4	Aircraft2_10%_13.jpg	1	0.1	626.799	630.531	627.787	1
9	1	19	148	630.832	4	Aircraft1_10%_45.jpg	0	0.1	630.832	634.564	631.817	0
9	1	19	149	634.885	4	Aircraft1_10%_37.jpg	0	0.1	634.885	638.615	635.819	0
9	1	19	150	638.887	4	rest.jpg	n/a	n/a	638.887	642.623	642.887	n/a
9	1	19	151	642.861	4	rest.jpg	n/a	n/a	642.861	646.592	646.861	n/a
9	1	19	152	646.826	4	rest.jpg	n/a	n/a	646.826	650.556	650.826	n/a
9	1	20	153	650.87	4	Aircraft2_90%_33.jpg	1	0.9	650.87	654.602	653.341	1
9	1	20	154	654.887	4	Aircraft2_90%_38.jpg	1	0.9	654.887	658.617	655.865	1
9	1	20	155	658.932	4	Aircraft1_90%_30.jpg	0	0.9	658.932	662.661	661.138	0
9	1	20	156	662.979	4	Aircraft1_90%_41.jpg	0	0.9	662.979	666.715	664.383	0
9	1	20	157	667.034	4	Aircraft1_90%_18.jpg	0	0.9	667.034	670.766	668.516	0
9	1	20	158	671.038	4	rest.jpg	n/a	n/a	671.038	674.775	675.038	n/a
9	1	20	159	675.025	4	rest.jpg	n/a	n/a	675.025	678.758	679.025	n/a
9	1	20	160	678.992	4	rest.jpg	n/a	n/a	678.992	682.722	682.992	n/a
9	1	21	161	683.017	4	Aircraft2_70%_9.jpg	1	0.75	683.017	686.747	684.965	1
9	1	21	162	687.033	4	Aircraft2_70%_6.jpg	1	0.75	687.033	690.764	688.758	1
9	1	21	163	691.087	4	Aircraft1_70%_23.jpg	0	0.75	691.087	694.818	693.236	0
9	1	21	164	695.094	4	Aircraft1_70%_21.jpg	0	0.75	695.094	698.827	696.294	0
9	1	21	165	699.145	4	Aircraft2_70%_36.jpg	1	0.75	699.145	702.88	700.678	1
9	1	21	166	703.154	4	rest.jpg	n/a	n/a	703.154	706.886	707.154	n/a
9	1	21	167	707.135	4	rest.jpg	n/a	n/a	707.135	710.868	711.135	n/a
9	1	21	168	711.117	4	rest.jpg	n/a	n/a	711.117	714.853	715.117	n/a
9	1	22	169	715.202	4	Aircraft2_10%_41.jpg	1	0.1	715.202	718.932	716.527	1
9	1	22	170	719.243	4	Aircraft1_10%_22.jpg	0	0.1	719.243	722.979	720.7	0
9	1	22	171	723.3	4	Aircraft1_10%_44.jpg	0	0.1	723.3	727.035	724.625	0
9	1	22	172	727.312	4	Aircraft1_10%_1.jpg	0	0.1	727.312	731.048	728.264	0
9	1	22	173	731.358	4	Aircraft2_10%_37.jpg	1	0.1	731.358	735.094	732.465	1
9	1	22	174	735.378	4	rest.jpg	n/a	n/a	735.378	739.109	739.378	n/a
9	1	22	175	739.356	4	rest.jpg	n/a	n/a	739.356	743.094	743.356	n/a
9	1	22	176	743.328	4	rest.jpg	n/a	n/a	743.328	747.058	747.328	n/a
9	1	23	177	747.345	4	Aircraft2_90%_31.jpg	1	0.9	747.345	751.075	749.725	1
9	1	23	178	751.391	4	Aircraft1_90%_4.jpg	0	0.9	751.391	755.127	752.804	0
9	1	23	179	755.418	4	Aircraft2_90%_20.jpg	1	0.9	755.418	759.148	757.994	1
9	1	23	180	759.441	4	Aircraft1_90%_7.jpg	0	0.9	759.441	763.176	761.885	0
9	1	23	181	763.452	4	Aircraft1_90%_8.jpg	0	0.9	763.452	767.188	764.766	0
9	1	23	182	767.47	4	rest.jpg	n/a	n/a	767.47	771.206	771.47	n/a
9	1	23	183	771.438	4	rest.jpg	n/a	n/a	771.438	775.168	775.438	n/a
9	1	23	184	775.402	4	rest.jpg	n/a	n/a	775.402	779.139	779.402	n/a
9	1	24	185	779.463	4	Aircraft2_70%_14.jpg	1	0.75	779.463	783.193	781.922	1
9	1	24	186	783.485	4	Aircraft2_70%_5.jpg	1	0.75	783.485	787.222	785.532	1
9	1	24	187	787.551	4	Aircraft2_70%_15.jpg	1	0.75	787.551	791.283	789.241	1
9	1	24	188	791.564	4	Aircraft2_70%_19.jpg	1	0.75	791.564	795.294	794.085	1
9	1	24	189	795.774	4	Aircraft1_70%_31.jpg	0	0.75	795.774	799.504	797.611	0
9	1	24	190	799.786	4	rest.jpg	n/a	n/a	799.786	803.522	803.786	n/a
9	1	24	191	803.767	4	rest.jpg	n/a	n/a	803.767	807.503	807.767	n/a
9	1	24	192	807.75	4	rest.jpg	n/a	n/a	807.75	811.48	811.75	n/a
9	1	25	193	811.768	4	Aircraft2_10%_9.jpg	1	0.1	811.768	815.503	813.075	1
9	1	25	194	815.785	4	Aircraft2_10%_6.jpg	1	0.1	815.785	819.52	816.954	1
9	1	25	195	819.846	4	Aircraft1_10%_23.jpg	0	0.1	819.846	823.581	821.601	0
9	1	25	196	823.872	4	Aircraft1_10%_21.jpg	0	0.1	823.872	827.603	825.235	0
9	1	25	197	827.889	4	Aircraft2_10%_36.jpg	1	0.1	827.889	831.624	829.672	1
9	1	25	198	831.895	4	rest.jpg	n/a	n/a	831.895	835.632	835.895	n/a
9	1	25	199	835.866	4	rest.jpg	n/a	n/a	835.866	839.597	839.866	n/a
9	1	25	200	839.847	4	rest.jpg	n/a	n/a	839.847	843.583	843.847	n/a
9	1	26	201	843.865	4	Aircraft2_90%_24.jpg	1	0.9	843.865	847.602	845.649	1
9	1	26	202	847.887	4	Aircraft2_90%_2.jpg	1	0.9	847.887	851.62	850.195	1
9	1	26	203	851.941	4	Aircraft2_90%_43.jpg	1	0.9	851.941	855.677	853.109	1
9	1	26	204	855.963	4	Aircraft2_90%_46.jpg	1	0.9	855.963	859.705	857.046	1
9	1	26	205	860.022	4	Aircraft1_90%_42.jpg	0	0.9	860.022	863.763	861.225	0
9	1	26	206	864.047	4	rest.jpg	n/a	n/a	864.047	867.784	868.047	n/a
9	1	26	207	868.028	4	rest.jpg	n/a	n/a	868.028	871.765	872.028	n/a
9	1	26	208	872.014	4	rest.jpg	n/a	n/a	872.014	875.746	876.014	n/a
9	1	27	209	876.078	4	Aircraft1_70%_3.jpg	0	0.75	876.078	879.814	878.536	0
9	1	27	210	880.106	4	Aircraft2_70%_28.jpg	1	0.75	880.106	883.839	882.058	1
9	1	27	211	884.136	4	Aircraft1_70%_24.jpg	0	0.75	884.136	887.867	885.937	0
9	1	27	212	888.194	4	Aircraft2_70%_39.jpg	1	0.75	888.194	891.931	889.878	1
9	1	27	213	892.242	4	Aircraft2_70%_8.jpg	1	0.75	892.242	895.974	893.833	1
9	1	27	214	896.253	4	rest.jpg	n/a	n/a	896.253	899.983	900.253	n/a
9	1	27	215	900.236	4	rest.jpg	n/a	n/a	900.236	903.974	904.236	n/a
9	1	27	216	904.209	4	rest.jpg	n/a	n/a	904.209	907.942	908.209	n/a
9	1	28	217	908.263	4	Aircraft1_10%_12.jpg	0	0.1	908.263	911.994	909.224	0
9	1	28	218	912.441	4	Aircraft2_10%_32.jpg	1	0.1	912.441	916.177	913.786	1
9	1	28	219	916.517	4	Aircraft2_10%_48.jpg	1	0.1	916.517	920.252	917.429	1
9	1	28	220	920.573	4	Aircraft1_10%_19.jpg	0	0.1	920.573	924.303	922.116	0
9	1	28	221	924.614	4	Aircraft1_10%_33.jpg	0	0.1	924.614	928.348	925.601	0
9	1	28	222	928.62	4	rest.jpg	n/a	n/a	928.62	932.35	932.62	n/a
9	1	28	223	932.584	4	rest.jpg	n/a	n/a	932.584	936.314	936.584	n/a
9	1	28	224	936.548	4	rest.jpg	n/a	n/a	936.548	940.279	940.548	n/a
9	1	29	225	940.601	4	Aircraft1_90%_17.jpg	0	0.9	940.601	944.332	942.032	0
9	1	29	226	944.618	4	Aircraft2_90%_42.jpg	1	0.9	944.618	948.354	945.706	1
9	1	29	227	948.642	4	Aircraft2_90%_44.jpg	1	0.9	948.642	952.373	949.774	1
9	1	29	228	952.784	4	Aircraft1_90%_10.jpg	0	0.9	952.784	956.514	954.317	0
9	1	29	229	956.803	4	Aircraft2_90%_25.jpg	1	0.9	956.803	960.54	958.387	1
9	1	29	230	960.812	4	rest.jpg	n/a	n/a	960.812	964.542	964.812	n/a
9	1	29	231	964.775	4	rest.jpg	n/a	n/a	964.775	968.507	968.775	n/a
9	1	29	232	968.741	4	rest.jpg	n/a	n/a	968.741	972.474	972.741	n/a
9	1	30	233	972.789	4	Aircraft1_70%_25.jpg	0	0.75	972.789	976.524	973.988	0
9	1	30	234	976.837	4	Aircraft2_70%_49.jpg	1	0.75	976.837	980.571	978.453	1
9	1	30	235	980.868	4	Aircraft2_70%_10.jpg	1	0.75	980.868	984.605	982.326	1
9	1	30	236	984.896	4	Aircraft2_70%_12.jpg	1	0.75	984.896	988.629	987.261	1
9	1	30	237	988.942	4	Aircraft2_70%_7.jpg	1	0.75	988.942	992.672	991.154	1
9	1	30	238	992.953	4	rest.jpg	n/a	n/a	992.953	996.683	996.953	n/a
9	1	30	239	996.917	4	rest.jpg	n/a	n/a	996.917	1000.653	1000.917	n/a
9	1	30	240	1000.886	4	rest.jpg	n/a	n/a	1000.886	1004.616	1004.886	n/a
