sub	run	block	trail	oneset	duration	stim_file	stim_lable	level of occlusion	stim_started	stim_stopped	key_time	key_fix
57	1	1	1	40	4	Aircraft1_10%_2.jpg	0	0.1	40	43.736	41.26	0
57	1	1	2	44.026	4	Aircraft1_10%_39.jpg	0	0.1	44.026	47.763	45.573	0
57	1	1	3	48.032	4	Aircraft2_10%_26.jpg	1	0.1	48.032	51.767	48.83	1
57	1	1	4	52.041	4	Aircraft1_10%_15.jpg	0	0.1	52.041	55.778	53.638	0
57	1	1	5	56.069	4	Aircraft2_10%_16.jpg	1	0.1	56.069	59.806	56.818	1
57	1	1	6	60.09	4	rest.jpg	n/a	n/a	60.09	63.826	64.09	n/a
57	1	1	7	64.077	4	rest.jpg	n/a	n/a	64.077	67.812	68.077	n/a
57	1	1	8	68.06	4	rest.jpg	n/a	n/a	68.06	71.796	72.06	n/a
57	1	2	9	72.064	4	Aircraft2_90%_14.jpg	1	0.9	72.064	75.794	73.285	1
57	1	2	10	76.077	4	Aircraft2_90%_5.jpg	1	0.9	76.077	79.808	76.991	1
57	1	2	11	80.09	4	Aircraft2_90%_15.jpg	1	0.9	80.09	83.82	81.081	1
57	1	2	12	84.088	4	Aircraft2_90%_19.jpg	1	0.9	84.088	87.817	85.373	1
57	1	2	13	88.083	4	Aircraft1_90%_31.jpg	0	0.9	88.083	91.813	89.898	0
57	1	2	14	92.097	4	rest.jpg	n/a	n/a	92.097	95.833	96.097	n/a
57	1	2	15	96.086	4	rest.jpg	n/a	n/a	96.086	99.818	100.086	n/a
57	1	2	16	100.066	4	rest.jpg	n/a	n/a	100.066	103.796	104.066	n/a
57	1	3	17	104.07	4	Aircraft2_70%_4.jpg	1	0.75	104.07	107.802	105.302	1
57	1	3	18	108.091	4	Aircraft1_70%_43.jpg	0	0.75	108.091	111.823	109.735	0
57	1	3	19	112.113	4	Aircraft1_70%_9.jpg	0	0.75	112.113	115.844	113.908	0
57	1	3	20	116.138	4	Aircraft1_70%_11.jpg	0	0.75	116.138	119.868	117.45	0
57	1	3	21	120.142	4	Aircraft1_70%_50.jpg	0	0.75	120.142	123.871	121.107	0
57	1	3	22	124.161	4	rest.jpg	n/a	n/a	124.161	127.891	128.161	n/a
57	1	3	23	128.141	4	rest.jpg	n/a	n/a	128.141	131.872	132.141	n/a
57	1	3	24	132.108	4	rest.jpg	n/a	n/a	132.108	135.845	136.108	n/a
57	1	4	25	136.116	4	Aircraft1_10%_36.jpg	0	0.1	136.116	139.852	138.048	0
57	1	4	26	140.144	4	Aircraft1_10%_35.jpg	0	0.1	140.144	143.876	141.912	0
57	1	4	27	144.147	4	Aircraft2_10%_3.jpg	1	0.1	144.147	147.882	144.99	1
57	1	4	28	148.171	4	Aircraft1_10%_5.jpg	0	0.1	148.171	151.903	149.165	0
57	1	4	29	152.192	4	Aircraft1_10%_48.jpg	0	0.1	152.192	155.922	153.388	0
57	1	4	30	156.218	4	rest.jpg	n/a	n/a	156.218	159.947	160.218	n/a
57	1	4	31	160.196	4	rest.jpg	n/a	n/a	160.196	163.933	164.196	n/a
57	1	4	32	164.166	4	rest.jpg	n/a	n/a	164.166	167.902	168.166	n/a
57	1	5	33	168.172	4	Aircraft1_90%_3.jpg	0	0.9	168.172	171.907	169.129	0
57	1	5	34	172.189	4	Aircraft2_90%_28.jpg	1	0.9	172.189	175.919	173.435	1
57	1	5	35	176.203	4	Aircraft1_90%_24.jpg	0	0.9	176.203	179.933	177.511	0
57	1	5	36	180.217	4	Aircraft2_90%_39.jpg	1	0.9	180.217	183.949	181.357	1
57	1	5	37	184.233	4	Aircraft2_90%_8.jpg	1	0.9	184.233	187.981	185.115	1
57	1	5	38	188.256	4	rest.jpg	n/a	n/a	188.256	191.986	192.256	n/a
57	1	5	39	192.224	4	rest.jpg	n/a	n/a	192.224	195.953	196.224	n/a
57	1	5	40	196.202	4	rest.jpg	n/a	n/a	196.202	199.939	200.202	n/a
57	1	6	41	200.211	4	Aircraft2_70%_18.jpg	1	0.75	200.211	203.943	201.075	1
57	1	6	42	204.232	4	Aircraft1_70%_29.jpg	0	0.75	204.232	207.974	205.457	0
57	1	6	43	208.247	4	Aircraft2_70%_1.jpg	1	0.75	208.247	211.982	209.858	1
57	1	6	44	212.256	4	Aircraft1_70%_26.jpg	0	0.75	212.256	215.986	214.303	0
57	1	6	45	216.283	4	Aircraft2_70%_34.jpg	1	0.75	216.283	220.02	217.299	1
57	1	6	46	220.307	4	rest.jpg	n/a	n/a	220.307	224.044	224.307	n/a
57	1	6	47	224.278	4	rest.jpg	n/a	n/a	224.278	228.025	228.278	n/a
57	1	6	48	228.259	4	rest.jpg	n/a	n/a	228.259	231.99	232.259	n/a
57	1	7	49	232.262	4	Aircraft2_10%_17.jpg	1	0.1	232.262	235.992	233.858	1
57	1	7	50	236.265	4	Aircraft2_10%_11.jpg	1	0.1	236.265	239.997	237.862	1
57	1	7	51	240.289	4	Aircraft1_10%_20.jpg	0	0.1	240.289	244.019	241.765	0
57	1	7	52	244.312	4	Aircraft2_10%_47.jpg	1	0.1	244.312	248.055	245.225	1
57	1	7	53	248.327	4	Aircraft2_10%_45.jpg	1	0.1	248.327	252.059	249.367	1
57	1	7	54	252.347	4	rest.jpg	n/a	n/a	252.347	256.077	256.347	n/a
57	1	7	55	256.311	4	rest.jpg	n/a	n/a	256.311	260.044	260.311	n/a
57	1	7	56	260.278	4	rest.jpg	n/a	n/a	260.278	264.008	264.278	n/a
57	1	8	57	264.295	4	Aircraft1_90%_25.jpg	0	0.9	264.295	268.038	265.258	0
57	1	8	58	268.323	4	Aircraft2_90%_49.jpg	1	0.9	268.323	272.058	269.26	1
57	1	8	59	272.324	4	Aircraft2_90%_10.jpg	1	0.9	272.324	276.057	273.523	1
57	1	8	60	276.327	4	Aircraft2_90%_12.jpg	1	0.9	276.327	280.057	277.499	1
57	1	8	61	280.324	4	Aircraft2_90%_7.jpg	1	0.9	280.324	284.054	281.785	1
57	1	8	62	284.33	4	rest.jpg	n/a	n/a	284.33	288.088	288.33	n/a
57	1	8	63	288.322	4	rest.jpg	n/a	n/a	288.322	292.058	292.322	n/a
57	1	8	64	292.302	4	rest.jpg	n/a	n/a	292.302	296.039	296.302	n/a
57	1	9	65	296.322	4	Aircraft1_70%_32.jpg	0	0.75	296.322	300.052	297.418	0
57	1	9	66	300.344	4	Aircraft1_70%_49.jpg	0	0.75	300.344	304.08	301.136	0
57	1	9	67	304.36	4	Aircraft2_70%_22.jpg	1	0.75	304.36	308.096	305.313	1
57	1	9	68	308.37	4	Aircraft1_70%_34.jpg	0	0.75	308.37	312.1	309.865	0
57	1	9	69	312.373	4	Aircraft1_70%_14.jpg	0	0.75	312.373	316.103	313.913	0
57	1	9	70	316.374	4	rest.jpg	n/a	n/a	316.374	320.11	320.374	n/a
57	1	9	71	320.359	4	rest.jpg	n/a	n/a	320.359	324.09	324.359	n/a
57	1	9	72	324.351	4	rest.jpg	n/a	n/a	324.351	328.087	328.351	n/a
57	1	10	73	328.373	4	Aircraft1_10%_1.jpg	0	0.1	328.373	332.104	329.623	0
57	1	10	74	332.375	4	Aircraft1_10%_47.jpg	0	0.1	332.375	336.105	333.051	0
57	1	10	75	336.383	4	Aircraft1_10%_40.jpg	0	0.1	336.383	340.116	337.437	0
57	1	10	76	340.403	4	Aircraft1_10%_27.jpg	0	0.1	340.403	344.14	341.352	0
57	1	10	77	344.444	4	Aircraft2_10%_35.jpg	1	0.1	344.444	348.179	345.067	1
57	1	10	78	348.452	4	rest.jpg	n/a	n/a	348.452	352.19	352.452	n/a
57	1	10	79	352.44	4	rest.jpg	n/a	n/a	352.44	356.171	356.44	n/a
57	1	10	80	356.421	4	rest.jpg	n/a	n/a	356.421	360.156	360.421	n/a
57	1	11	81	360.435	4	Aircraft1_90%_32.jpg	0	0.9	360.435	364.171	361.226	0
57	1	11	82	364.451	4	Aircraft1_90%_49.jpg	0	0.9	364.451	368.184	366.116	0
57	1	11	83	368.451	4	Aircraft2_90%_22.jpg	1	0.9	368.451	372.182	369.662	1
57	1	11	84	372.451	4	Aircraft1_90%_34.jpg	0	0.9	372.451	376.181	373.783	0
57	1	11	85	376.463	4	Aircraft1_90%_14.jpg	0	0.9	376.463	380.199	377.944	0
57	1	11	86	380.471	4	rest.jpg	n/a	n/a	380.471	384.201	384.471	n/a
57	1	11	87	384.461	4	rest.jpg	n/a	n/a	384.461	388.197	388.461	n/a
57	1	11	88	388.444	4	rest.jpg	n/a	n/a	388.444	392.174	392.444	n/a
57	1	12	89	392.458	4	Aircraft2_70%_24.jpg	1	0.75	392.458	396.193	393.404	1
57	1	12	90	396.465	4	Aircraft2_70%_2.jpg	1	0.75	396.465	400.195	397.529	1
57	1	12	91	400.467	4	Aircraft2_70%_43.jpg	1	0.75	400.467	404.2	401.397	1
57	1	12	92	404.514	4	Aircraft2_70%_46.jpg	1	0.75	404.514	408.245	405.545	1
57	1	12	93	408.516	4	Aircraft1_70%_42.jpg	0	0.75	408.516	412.246	409.895	0
57	1	12	94	412.534	4	rest.jpg	n/a	n/a	412.534	416.272	416.534	n/a
57	1	12	95	416.521	4	rest.jpg	n/a	n/a	416.521	420.257	420.521	n/a
57	1	12	96	420.508	4	rest.jpg	n/a	n/a	420.508	424.238	424.508	n/a
57	1	13	97	424.525	4	Aircraft2_10%_30.jpg	1	0.1	424.525	428.255	425.848	1
57	1	13	98	428.525	4	Aircraft2_10%_27.jpg	1	0.1	428.525	432.261	430.567	1
57	1	13	99	432.55	4	Aircraft2_10%_50.jpg	1	0.1	432.55	436.282	434.466	1
57	1	13	100	436.574	4	Aircraft2_10%_29.jpg	1	0.1	436.574	440.304	438.788	1
57	1	13	101	440.579	4	Aircraft1_10%_6.jpg	0	0.1	440.579	444.315	441.427	0
57	1	13	102	444.603	4	rest.jpg	n/a	n/a	444.603	448.334	448.603	n/a
57	1	13	103	448.566	4	rest.jpg	n/a	n/a	448.566	452.304	452.566	n/a
57	1	13	104	452.551	4	rest.jpg	n/a	n/a	452.551	456.281	456.551	n/a
57	1	14	105	456.567	4	Aircraft2_90%_18.jpg	1	0.9	456.567	460.302	457.915	1
57	1	14	106	460.568	4	Aircraft1_90%_29.jpg	0	0.9	460.568	464.308	461.972	0
57	1	14	107	464.588	4	Aircraft2_90%_1.jpg	1	0.9	464.588	468.319	466.377	1
57	1	14	108	468.586	4	Aircraft1_90%_26.jpg	0	0.9	468.586	472.316	469.952	0
57	1	14	109	472.583	4	Aircraft2_90%_34.jpg	1	0.9	472.583	476.314	474.021	1
57	1	14	110	476.601	4	rest.jpg	n/a	n/a	476.601	480.335	480.601	n/a
57	1	14	111	480.583	4	rest.jpg	n/a	n/a	480.583	484.315	484.583	n/a
57	1	14	112	484.56	4	rest.jpg	n/a	n/a	484.56	488.29	488.56	n/a
57	1	15	113	488.562	4	Aircraft1_70%_17.jpg	0	0.75	488.562	492.292	489.559	0
57	1	15	114	492.583	4	Aircraft2_70%_42.jpg	1	0.75	492.583	496.32	493.381	1
57	1	15	115	496.594	4	Aircraft2_70%_44.jpg	1	0.75	496.594	500.324	497.265	1
57	1	15	116	500.617	4	Aircraft1_70%_10.jpg	0	0.75	500.617	504.35	501.569	0
57	1	15	117	504.642	4	Aircraft2_70%_25.jpg	1	0.75	504.642	508.374	505.367	1
57	1	15	118	508.66	4	rest.jpg	n/a	n/a	508.66	512.39	512.66	n/a
57	1	15	119	512.639	4	rest.jpg	n/a	n/a	512.639	516.375	516.639	n/a
57	1	15	120	516.611	4	rest.jpg	n/a	n/a	516.611	520.341	520.611	n/a
57	1	16	121	520.614	4	Aircraft1_10%_38.jpg	0	0.1	520.614	524.344	521.485	0
57	1	16	122	524.638	4	Aircraft2_10%_21.jpg	1	0.1	524.638	528.373	525.269	1
57	1	16	123	528.667	4	Aircraft1_10%_16.jpg	0	0.1	528.667	532.399	529.546	0
57	1	16	124	532.692	4	Aircraft1_10%_46.jpg	0	0.1	532.692	536.422	533.782	0
57	1	16	125	536.708	4	Aircraft2_10%_40.jpg	1	0.1	536.708	540.444	537.354	1
57	1	16	126	540.729	4	rest.jpg	n/a	n/a	540.729	544.459	544.729	n/a
57	1	16	127	544.708	4	rest.jpg	n/a	n/a	544.708	548.441	548.708	n/a
57	1	16	128	548.692	4	rest.jpg	n/a	n/a	548.692	552.427	552.692	n/a
57	1	17	129	552.693	4	Aircraft2_90%_4.jpg	1	0.9	552.693	556.423	553.732	1
57	1	17	130	556.696	4	Aircraft1_90%_43.jpg	0	0.9	556.696	560.432	557.354	0
57	1	17	131	560.713	4	Aircraft1_90%_9.jpg	0	0.9	560.713	564.443	562.065	0
57	1	17	132	564.715	4	Aircraft1_90%_11.jpg	0	0.9	564.715	568.448	566.23	0
57	1	17	133	568.715	4	Aircraft1_90%_50.jpg	0	0.9	568.715	572.454	569.69	0
57	1	17	134	572.725	4	rest.jpg	n/a	n/a	572.725	576.461	576.725	n/a
57	1	17	135	576.714	4	rest.jpg	n/a	n/a	576.714	580.446	580.714	n/a
57	1	17	136	580.696	4	rest.jpg	n/a	n/a	580.696	584.431	584.696	n/a
57	1	18	137	584.719	4	Aircraft1_70%_12.jpg	0	0.75	584.719	588.455	586.558	0
57	1	18	138	588.744	4	Aircraft2_70%_32.jpg	1	0.75	588.744	592.474	590.044	1
57	1	18	139	592.74	4	Aircraft2_70%_48.jpg	1	0.75	592.74	596.478	593.618	1
57	1	18	140	596.752	4	Aircraft1_70%_19.jpg	0	0.75	596.752	600.487	597.514	0
57	1	18	141	600.775	4	Aircraft1_70%_33.jpg	0	0.75	600.775	604.505	601.482	0
57	1	18	142	604.776	4	rest.jpg	n/a	n/a	604.776	608.512	608.776	n/a
57	1	18	143	608.759	4	rest.jpg	n/a	n/a	608.759	612.494	612.759	n/a
57	1	18	144	612.744	4	rest.jpg	n/a	n/a	612.744	616.474	616.744	n/a
57	1	19	145	616.769	4	Aircraft2_10%_23.jpg	1	0.1	616.769	620.501	618.073	1
57	1	19	146	620.79	4	Aircraft1_10%_28.jpg	0	0.1	620.79	624.52	621.66	0
57	1	19	147	624.793	4	Aircraft2_10%_13.jpg	1	0.1	624.793	628.523	625.521	1
57	1	19	148	628.807	4	Aircraft1_10%_45.jpg	0	0.1	628.807	632.543	629.553	0
57	1	19	149	632.817	4	Aircraft1_10%_37.jpg	0	0.1	632.817	636.547	633.655	0
57	1	19	150	636.838	4	rest.jpg	n/a	n/a	636.838	640.568	640.838	n/a
57	1	19	151	640.802	4	rest.jpg	n/a	n/a	640.802	644.533	644.802	n/a
57	1	19	152	644.767	4	rest.jpg	n/a	n/a	644.767	648.503	648.767	n/a
57	1	20	153	648.781	4	Aircraft2_90%_33.jpg	1	0.9	648.781	652.513	650.042	1
57	1	20	154	652.798	4	Aircraft2_90%_38.jpg	1	0.9	652.798	656.527	653.475	1
57	1	20	155	656.793	4	Aircraft1_90%_30.jpg	0	0.9	656.793	660.528	658.24	0
57	1	20	156	660.81	4	Aircraft1_90%_41.jpg	0	0.9	660.81	664.543	662.107	0
57	1	20	157	664.808	4	Aircraft1_90%_18.jpg	0	0.9	664.808	668.541	666.21	0
57	1	20	158	668.81	4	rest.jpg	n/a	n/a	668.81	672.54	672.81	n/a
57	1	20	159	672.788	4	rest.jpg	n/a	n/a	672.788	676.523	676.788	n/a
57	1	20	160	676.758	4	rest.jpg	n/a	n/a	676.758	680.495	680.758	n/a
57	1	21	161	680.767	4	Aircraft2_70%_9.jpg	1	0.75	680.767	684.499	681.905	1
57	1	21	162	684.783	4	Aircraft2_70%_6.jpg	1	0.75	684.783	688.513	685.938	1
57	1	21	163	688.786	4	Aircraft1_70%_23.jpg	0	0.75	688.786	692.517	690.527	0
57	1	21	164	692.789	4	Aircraft1_70%_21.jpg	0	0.75	692.789	696.521	694.777	0
57	1	21	165	696.792	4	Aircraft2_70%_36.jpg	1	0.75	696.792	700.522	697.705	1
57	1	21	166	700.793	4	rest.jpg	n/a	n/a	700.793	704.526	704.793	n/a
57	1	21	167	704.777	4	rest.jpg	n/a	n/a	704.777	708.509	708.777	n/a
57	1	21	168	708.759	4	rest.jpg	n/a	n/a	708.759	712.494	712.759	n/a
57	1	22	169	712.771	4	Aircraft2_10%_41.jpg	1	0.1	712.771	716.508	713.67	1
57	1	22	170	716.784	4	Aircraft1_10%_22.jpg	0	0.1	716.784	720.514	717.669	0
57	1	22	171	720.784	4	Aircraft1_10%_44.jpg	0	0.1	720.784	724.519	721.808	0
57	1	22	172	724.81	4	Aircraft1_10%_1.jpg	0	0.1	724.81	728.539	725.951	0
57	1	22	173	728.821	4	Aircraft2_10%_37.jpg	1	0.1	728.821	732.554	729.538	1
57	1	22	174	732.841	4	rest.jpg	n/a	n/a	732.841	736.571	736.841	n/a
57	1	22	175	736.805	4	rest.jpg	n/a	n/a	736.805	740.535	740.805	n/a
57	1	22	176	740.783	4	rest.jpg	n/a	n/a	740.783	744.518	744.783	n/a
57	1	23	177	744.802	4	Aircraft2_90%_31.jpg	1	0.9	744.802	748.539	745.681	1
57	1	23	178	748.826	4	Aircraft1_90%_4.jpg	0	0.9	748.826	752.559	749.705	0
57	1	23	179	752.843	4	Aircraft2_90%_20.jpg	1	0.9	752.843	756.58	755.463	1
57	1	23	180	756.851	4	Aircraft1_90%_7.jpg	0	0.9	756.851	760.587	758.77	0
57	1	23	181	760.857	4	Aircraft1_90%_8.jpg	0	0.9	760.857	764.593	762.414	0
57	1	23	182	764.863	4	rest.jpg	n/a	n/a	764.863	768.593	768.863	n/a
57	1	23	183	768.825	4	rest.jpg	n/a	n/a	768.825	772.555	772.825	n/a
57	1	23	184	772.804	4	rest.jpg	n/a	n/a	772.804	776.536	776.804	n/a
57	1	24	185	776.822	4	Aircraft2_70%_14.jpg	1	0.75	776.822	780.554	778.725	1
57	1	24	186	780.829	4	Aircraft2_70%_5.jpg	1	0.75	780.829	784.561	782.971	1
57	1	24	187	784.85	4	Aircraft2_70%_15.jpg	1	0.75	784.85	788.586	786.232	1
57	1	24	188	788.874	4	Aircraft2_70%_19.jpg	1	0.75	788.874	792.604	789.793	1
57	1	24	189	792.896	4	Aircraft1_70%_31.jpg	0	0.75	792.896	796.632	794.167	0
57	1	24	190	796.92	4	rest.jpg	n/a	n/a	796.92	800.655	800.92	n/a
57	1	24	191	800.897	4	rest.jpg	n/a	n/a	800.897	804.632	804.897	n/a
57	1	24	192	804.865	4	rest.jpg	n/a	n/a	804.865	808.597	808.865	n/a
57	1	25	193	808.87	4	Aircraft2_10%_9.jpg	1	0.1	808.87	812.607	810.109	1
57	1	25	194	812.896	4	Aircraft2_10%_6.jpg	1	0.1	812.896	816.629	813.733	1
57	1	25	195	816.921	4	Aircraft1_10%_23.jpg	0	0.1	816.921	820.658	817.724	0
57	1	25	196	820.936	4	Aircraft1_10%_21.jpg	0	0.1	820.936	824.672	822.065	0
57	1	25	197	824.959	4	Aircraft2_10%_36.jpg	1	0.1	824.959	828.69	825.666	1
57	1	25	198	828.961	4	rest.jpg	n/a	n/a	828.961	832.694	832.961	n/a
57	1	25	199	832.928	4	rest.jpg	n/a	n/a	832.928	836.657	836.928	n/a
57	1	25	200	836.901	4	rest.jpg	n/a	n/a	836.901	840.631	840.901	n/a
57	1	26	201	840.917	4	Aircraft2_90%_24.jpg	1	0.9	840.917	844.652	842.823	1
57	1	26	202	844.92	4	Aircraft2_90%_2.jpg	1	0.9	844.92	848.651	846.982	1
57	1	26	203	848.918	4	Aircraft2_90%_43.jpg	1	0.9	848.918	852.648	849.743	1
57	1	26	204	852.93	4	Aircraft2_90%_46.jpg	1	0.9	852.93	856.668	854.225	1
57	1	26	205	856.935	4	Aircraft1_90%_42.jpg	0	0.9	856.935	860.67	858.415	0
57	1	26	206	860.941	4	rest.jpg	n/a	n/a	860.941	864.674	864.941	n/a
57	1	26	207	864.921	4	rest.jpg	n/a	n/a	864.921	868.653	868.921	n/a
57	1	26	208	868.887	4	rest.jpg	n/a	n/a	868.887	872.622	872.887	n/a
57	1	27	209	872.908	4	Aircraft1_70%_3.jpg	0	0.75	872.908	876.643	874.654	0
57	1	27	210	876.931	4	Aircraft2_70%_28.jpg	1	0.75	876.931	880.663	878.778	1
57	1	27	211	880.953	4	Aircraft1_70%_24.jpg	0	0.75	880.953	884.683	881.932	0
57	1	27	212	884.97	4	Aircraft2_70%_39.jpg	1	0.75	884.97	888.702	885.789	1
57	1	27	213	888.977	4	Aircraft2_70%_8.jpg	1	0.75	888.977	892.714	890.05	1
57	1	27	214	893.003	4	rest.jpg	n/a	n/a	893.003	896.736	897.003	n/a
57	1	27	215	896.987	4	rest.jpg	n/a	n/a	896.987	900.725	900.987	n/a
57	1	27	216	900.975	4	rest.jpg	n/a	n/a	900.975	904.707	904.975	n/a
57	1	28	217	904.994	4	Aircraft1_10%_12.jpg	0	0.1	904.994	908.73	905.939	0
57	1	28	218	909.004	4	Aircraft2_10%_32.jpg	1	0.1	909.004	912.734	909.639	1
57	1	28	219	913.021	4	Aircraft2_10%_48.jpg	1	0.1	913.021	916.753	913.672	1
57	1	28	220	917.023	4	Aircraft1_10%_19.jpg	0	0.1	917.023	920.754	917.869	0
57	1	28	221	921.042	4	Aircraft1_10%_33.jpg	0	0.1	921.042	924.777	921.714	0
57	1	28	222	925.069	4	rest.jpg	n/a	n/a	925.069	928.799	929.069	n/a
57	1	28	223	929.033	4	rest.jpg	n/a	n/a	929.033	932.765	933.033	n/a
57	1	28	224	932.999	4	rest.jpg	n/a	n/a	932.999	936.729	936.999	n/a
57	1	29	225	936.997	4	Aircraft1_90%_17.jpg	0	0.9	936.997	940.726	938.469	0
57	1	29	226	941.009	4	Aircraft2_90%_42.jpg	1	0.9	941.009	944.739	942.095	1
57	1	29	227	945.004	4	Aircraft2_90%_44.jpg	1	0.9	945.004	948.74	945.747	1
57	1	29	228	949.019	4	Aircraft1_90%_10.jpg	0	0.9	949.019	952.752	950.743	0
57	1	29	229	953.032	4	Aircraft2_90%_25.jpg	1	0.9	953.032	956.77	954.614	1
57	1	29	230	957.057	4	rest.jpg	n/a	n/a	957.057	960.789	961.057	n/a
57	1	29	231	961.036	4	rest.jpg	n/a	n/a	961.036	964.773	965.036	n/a
57	1	29	232	965.022	4	rest.jpg	n/a	n/a	965.022	968.755	969.022	n/a
57	1	30	233	969.023	4	Aircraft1_70%_25.jpg	0	0.75	969.023	972.756	969.899	0
57	1	30	234	973.024	4	Aircraft2_70%_49.jpg	1	0.75	973.024	976.753	973.935	1
57	1	30	235	977.02	4	Aircraft2_70%_10.jpg	1	0.75	977.02	980.755	978.345	1
57	1	30	236	981.048	4	Aircraft2_70%_12.jpg	1	0.75	981.048	984.78	982.667	1
57	1	30	237	985.067	4	Aircraft2_70%_7.jpg	1	0.75	985.067	988.798	986.356	1
57	1	30	238	989.086	4	rest.jpg	n/a	n/a	989.086	992.819	993.086	n/a
57	1	30	239	993.069	4	rest.jpg	n/a	n/a	993.069	996.799	997.069	n/a
57	1	30	240	997.045	4	rest.jpg	n/a	n/a	997.045	1000.78	1001.045	n/a
