onset	duration	stim_file	stim_lable	levelOfOcclusion	stim_started	stim_stopped	key_time	key_fix	stim_started_1	stim_stopped_1	key_time_1	key_fix_1
40.022	4	Aircraft1_10%_17.jpg	0	0.1	40.022	43.759	40.827	0	40.022	43.759	40.827	0
44.071	4	Aircraft2_10%_42.jpg	1	0.1	44.071	47.81	44.594	1	44.071	47.81	44.594	1
48.088	4	Aircraft2_10%_44.jpg	1	0.1	48.088	51.826	48.766	1	48.088	51.826	48.766	1
52.107	4	Aircraft1_10%_10.jpg	0	0.1	52.107	55.841	52.698	0	52.107	55.841	52.698	0
56.114	4	Aircraft2_10%_25.jpg	1	0.1	56.114	59.855	56.673	1	56.114	59.855	56.673	1
60.18	4	rest.jpg	NaN	NaN	60.18	63.915	64.18	NaN	60.18	63.915	64.18	NaN
64.152	4	rest.jpg	NaN	NaN	64.152	67.895	68.152	NaN	64.152	67.895	68.152	NaN
68.132	4	rest.jpg	NaN	NaN	68.132	71.874	72.132	NaN	68.132	71.874	72.132	NaN
72.159	4	Aircraft1_90%_12.jpg	0	0.9	72.159	75.895	73.167	0	72.159	75.895	73.167	0
76.192	4	Aircraft2_90%_32.jpg	1	0.9	76.192	79.929	76.738	1	76.192	79.929	76.738	1
80.213	4	Aircraft2_90%_48.jpg	1	0.9	80.213	83.955	81.869	1	80.213	83.955	81.869	1
84.228	4	Aircraft1_90%_19.jpg	0	0.9	84.228	87.964	85.178	0	84.228	87.964	85.178	0
88.262	4	Aircraft1_90%_33.jpg	0	0.9	88.262	91.998	89.825	0	88.262	91.998	89.825	0
92.286	4	rest.jpg	NaN	NaN	92.286	96.025	96.286	NaN	92.286	96.025	96.286	NaN
96.273	4	rest.jpg	NaN	NaN	96.273	100.008	100.273	NaN	96.273	100.008	100.273	NaN
100.244	4	rest.jpg	NaN	NaN	100.244	103.984	104.244	NaN	100.244	103.984	104.244	NaN
104.294	4	Aircraft2_70%_33.jpg	1	0.75	104.294	108.033	104.929	1	104.294	108.033	104.929	1
108.345	4	Aircraft2_70%_38.jpg	1	0.75	108.345	112.079	108.866	1	108.345	112.079	108.866	1
112.348	4	Aircraft1_70%_30.jpg	0	0.75	112.348	116.088	113.148	0	112.348	116.088	113.148	0
116.372	4	Aircraft1_70%_41.jpg	0	0.75	116.372	120.11	117.223	0	116.372	120.11	117.223	0
120.378	4	Aircraft1_70%_18.jpg	0	0.75	120.378	124.111	121.291	0	120.378	124.111	121.291	0
124.375	4	rest.jpg	NaN	NaN	124.375	128.11	128.375	NaN	124.375	128.11	128.375	NaN
128.341	4	rest.jpg	NaN	NaN	128.341	132.076	132.341	NaN	128.341	132.076	132.341	NaN
132.32	4	rest.jpg	NaN	NaN	132.32	136.052	136.32	NaN	132.32	136.052	136.32	NaN
136.356	4	Aircraft2_10%_24.jpg	1	0.1	136.356	140.09	137.171	1	136.356	140.09	137.171	1
140.393	4	Aircraft2_10%_2.jpg	1	0.1	140.393	144.131	141.088	1	140.393	144.131	141.088	1
144.448	4	Aircraft2_10%_43.jpg	1	0.1	144.448	148.18	145.297	1	144.448	148.18	145.297	1
148.465	4	Aircraft2_10%_46.jpg	1	0.1	148.465	152.205	149.297	1	148.465	152.205	149.297	1
152.478	4	Aircraft1_10%_42.jpg	0	0.1	152.478	156.218	153.055	0	152.478	156.218	153.055	0
156.483	4	rest.jpg	NaN	NaN	156.483	160.215	160.483	NaN	156.483	160.215	160.483	NaN
160.446	4	rest.jpg	NaN	NaN	160.446	164.178	164.446	NaN	160.446	164.178	164.446	NaN
164.428	4	rest.jpg	NaN	NaN	164.428	168.159	168.428	NaN	164.428	168.159	168.428	NaN
168.43	4	Aircraft2_90%_9.jpg	1	0.9	168.43	172.162	169.937	1	168.43	172.162	169.937	1
172.468	4	Aircraft2_90%_6.jpg	1	0.9	172.468	176.207	173.897	1	172.468	176.207	173.897	1
176.521	4	Aircraft1_90%_23.jpg	0	0.9	176.521	180.258	177.301	0	176.521	180.258	177.301	0
180.529	4	Aircraft1_90%_21.jpg	0	0.9	180.529	184.263	182.513	0	180.529	184.263	182.513	0
184.581	4	Aircraft2_90%_36.jpg	1	0.9	184.581	188.316	185.497	1	184.581	188.316	185.497	1
188.598	4	rest.jpg	NaN	NaN	188.598	192.33	192.598	NaN	188.598	192.33	192.598	NaN
192.578	4	rest.jpg	NaN	NaN	192.578	196.31	196.578	NaN	192.578	196.31	196.578	NaN
196.561	4	rest.jpg	NaN	NaN	196.561	200.299	200.561	NaN	196.561	200.299	200.561	NaN
200.588	4	Aircraft2_70%_31.jpg	1	0.75	200.588	204.32	201.399	1	200.588	204.32	201.399	1
204.63	4	Aircraft1_70%_4.jpg	0	0.75	204.63	208.367	205.209	0	204.63	208.367	205.209	0
208.688	4	Aircraft2_70%_20.jpg	1	0.75	208.688	212.425	209.241	1	208.688	212.425	209.241	1
212.731	4	Aircraft1_70%_7.jpg	0	0.75	212.731	216.471	214.068	0	212.731	216.471	214.068	0
216.788	4	Aircraft1_70%_8.jpg	0	0.75	216.788	220.52	217.608	0	216.788	220.52	217.608	0
220.801	4	rest.jpg	NaN	NaN	220.801	224.539	224.801	NaN	220.801	224.539	224.801	NaN
224.786	4	rest.jpg	NaN	NaN	224.786	228.518	228.786	NaN	224.786	228.518	228.786	NaN
228.764	4	rest.jpg	NaN	NaN	228.764	232.496	232.764	NaN	228.764	232.496	232.764	NaN
232.802	4	Aircraft2_10%_31.jpg	1	0.1	232.802	236.54	233.831	1	232.802	236.54	233.831	1
236.826	4	Aircraft1_10%_4.jpg	0	0.1	236.826	240.558	237.461	0	236.826	240.558	237.461	0
240.861	4	Aircraft2_10%_20.jpg	1	0.1	240.861	244.596	241.298	1	240.861	244.596	241.298	1
244.892	4	Aircraft1_10%_7.jpg	0	0.1	244.892	248.626	245.424	0	244.892	248.626	245.424	0
248.904	4	Aircraft1_10%_8.jpg	0	0.1	248.904	252.636	249.375	0	248.904	252.636	249.375	0
252.907	4	rest.jpg	NaN	NaN	252.907	256.638	256.907	NaN	252.907	256.638	256.907	NaN
256.872	4	rest.jpg	NaN	NaN	256.872	260.605	260.872	NaN	256.872	260.605	260.872	NaN
260.838	4	rest.jpg	NaN	NaN	260.838	264.577	264.838	NaN	260.838	264.577	264.838	NaN
264.879	4	Aircraft2_90%_41.jpg	1	0.9	264.879	268.614	265.55	1	264.879	268.614	265.55	1
268.93	4	Aircraft1_90%_22.jpg	0	0.9	268.93	272.668	269.487	0	268.93	272.668	269.487	0
272.937	4	Aircraft1_90%_44.jpg	0	0.9	272.937	276.671	273.643	0	272.937	276.671	273.643	0
276.974	4	Aircraft1_90%_1.jpg	0	0.9	276.974	280.706	277.786	0	276.974	280.706	277.786	0
280.968	4	Aircraft2_90%_37.jpg	1	0.9	280.968	284.707	281.856	1	280.968	284.707	281.856	1
284.971	4	rest.jpg	NaN	NaN	284.971	288.707	288.971	NaN	284.971	288.707	288.971	NaN
288.943	4	rest.jpg	NaN	NaN	288.943	292.678	292.943	NaN	288.943	292.678	292.943	NaN
292.924	4	rest.jpg	NaN	NaN	292.924	296.662	296.924	NaN	292.924	296.662	296.924	NaN
296.927	4	Aircraft2_70%_41.jpg	1	0.75	296.927	300.659	297.558	1	296.927	300.659	297.558	1
300.94	4	Aircraft1_70%_22.jpg	0	0.75	300.94	304.672	301.592	0	300.94	304.672	301.592	0
304.959	4	Aircraft1_70%_44.jpg	0	0.75	304.959	308.691	305.624	0	304.959	308.691	305.624	0
308.991	4	Aircraft1_70%_1.jpg	0	0.75	308.991	312.73	310.419	0	308.991	312.73	310.419	0
312.997	4	Aircraft2_70%_37.jpg	1	0.75	312.997	316.732	313.61	1	312.997	316.732	313.61	1
317.013	4	rest.jpg	NaN	NaN	317.013	320.747	321.013	NaN	317.013	320.747	321.013	NaN
320.979	4	rest.jpg	NaN	NaN	320.979	324.71	324.979	NaN	320.979	324.71	324.979	NaN
324.94	4	rest.jpg	NaN	NaN	324.94	328.678	328.94	NaN	324.94	328.678	328.94	NaN
328.991	4	Aircraft2_10%_33.jpg	1	0.1	328.991	332.723	330.181	1	328.991	332.723	330.181	1
333.028	4	Aircraft2_10%_38.jpg	1	0.1	333.028	336.76	333.641	1	333.028	336.76	333.641	1
337.064	4	Aircraft1_10%_30.jpg	0	0.1	337.064	340.803	337.676	0	337.064	340.803	337.676	0
341.119	4	Aircraft1_10%_41.jpg	0	0.1	341.119	344.851	341.731	0	341.119	344.851	341.731	0
345.159	4	Aircraft1_10%_18.jpg	0	0.1	345.159	348.891	345.756	0	345.159	348.891	345.756	0
349.176	4	rest.jpg	NaN	NaN	349.176	352.911	353.176	NaN	349.176	352.911	353.176	NaN
353.143	4	rest.jpg	NaN	NaN	353.143	356.878	357.143	NaN	353.143	356.878	357.143	NaN
357.127	4	rest.jpg	NaN	NaN	357.127	360.858	361.127	NaN	357.127	360.858	361.127	NaN
361.181	4	Aircraft2_90%_23.jpg	1	0.9	361.181	364.918	362.177	1	361.181	364.918	362.177	1
365.195	4	Aircraft1_90%_28.jpg	0	0.9	365.195	368.927	365.994	0	365.195	368.927	365.994	0
369.222	4	Aircraft2_90%_13.jpg	1	0.9	369.222	372.954	370.052	1	369.222	372.954	370.052	1
373.233	4	Aircraft1_90%_45.jpg	0	0.9	373.233	376.968	374.23	0	373.233	376.968	374.23	0
377.256	4	Aircraft1_90%_37.jpg	0	0.9	377.256	380.993	378.745	0	377.256	380.993	378.745	0
381.258	4	rest.jpg	NaN	NaN	381.258	384.993	385.258	NaN	381.258	384.993	385.258	NaN
385.239	4	rest.jpg	NaN	NaN	385.239	388.971	389.239	NaN	385.239	388.971	389.239	NaN
389.222	4	rest.jpg	NaN	NaN	389.222	392.956	393.222	NaN	389.222	392.956	393.222	NaN
393.402	4	Aircraft1_70%_2.jpg	0	0.75	393.402	397.136	394.58	0	393.402	397.136	394.58	0
397.448	4	Aircraft1_70%_39.jpg	0	0.75	397.448	401.186	398.228	0	397.448	401.186	398.228	0
401.49	4	Aircraft2_70%_26.jpg	1	0.75	401.49	405.222	402.247	1	401.49	405.222	402.247	1
405.5	4	Aircraft1_70%_15.jpg	0	0.75	405.5	409.237	406.175	0	405.5	409.237	406.175	0
409.55	4	Aircraft2_70%_16.jpg	1	0.75	409.55	413.282	410.315	1	409.55	413.282	410.315	1
413.562	4	rest.jpg	NaN	NaN	413.562	417.296	417.562	NaN	413.562	417.296	417.562	NaN
417.545	4	rest.jpg	NaN	NaN	417.545	421.283	421.545	NaN	417.545	421.283	421.545	NaN
421.529	4	rest.jpg	NaN	NaN	421.529	425.264	425.529	NaN	421.529	425.264	425.529	NaN
425.591	4	Aircraft2_10%_4.jpg	1	0.1	425.591	429.324	426.147	1	425.591	429.324	426.147	1
429.647	4	Aircraft1_10%_43.jpg	0	0.1	429.647	433.379	430.314	0	429.647	433.379	430.314	0
433.702	4	Aircraft1_10%_9.jpg	0	0.1	433.702	437.435	434.216	0	433.702	437.435	434.216	0
437.747	4	Aircraft1_10%_11.jpg	0	0.1	437.747	441.481	438.258	0	437.747	441.481	438.258	0
441.794	4	Aircraft1_10%_50.jpg	0	0.1	441.794	445.528	442.37	0	441.794	445.528	442.37	0
445.81	4	rest.jpg	NaN	NaN	445.81	449.548	449.81	NaN	445.81	449.548	449.81	NaN
449.795	4	rest.jpg	NaN	NaN	449.795	453.526	453.795	NaN	449.795	453.526	453.795	NaN
453.776	4	rest.jpg	NaN	NaN	453.776	457.51	457.776	NaN	453.776	457.51	457.776	NaN
457.786	4	Aircraft1_90%_38.jpg	0	0.9	457.786	461.525	458.556	0	457.786	461.525	458.556	0
461.828	4	Aircraft2_90%_21.jpg	1	0.9	461.828	465.568	463.914	1	461.828	465.568	463.914	1
465.879	4	Aircraft1_90%_16.jpg	0	0.9	465.879	469.616	467.627	0	465.879	469.616	467.627	0
469.897	4	Aircraft1_90%_46.jpg	0	0.9	469.897	473.629	471.001	0	469.897	473.629	471.001	0
473.912	4	Aircraft2_90%_40.jpg	1	0.9	473.912	477.645	474.677	1	473.912	477.645	474.677	1
477.93	4	rest.jpg	NaN	NaN	477.93	481.671	481.93	NaN	477.93	481.671	481.93	NaN
481.903	4	rest.jpg	NaN	NaN	481.903	485.64	485.903	NaN	481.903	485.64	485.903	NaN
485.885	4	rest.jpg	NaN	NaN	485.885	489.618	489.885	NaN	485.885	489.618	489.885	NaN
489.936	4	Aircraft1_70%_36.jpg	0	0.75	489.936	493.676	491.423	0	489.936	493.676	491.423	0
493.986	4	Aircraft1_70%_35.jpg	0	0.75	493.986	497.724	496.785	0	493.986	497.724	496.785	0
498.029	4	Aircraft2_70%_3.jpg	1	0.75	498.029	501.768	498.684	1	498.029	501.768	498.684	1
502.091	4	Aircraft1_70%_5.jpg	0	0.75	502.091	505.827	503.065	0	502.091	505.827	503.065	0
506.14	4	Aircraft1_70%_48.jpg	0	0.75	506.14	509.878	508.093	0	506.14	509.878	508.093	0
510.163	4	rest.jpg	NaN	NaN	510.163	513.899	514.163	NaN	510.163	513.899	514.163	NaN
514.136	4	rest.jpg	NaN	NaN	514.136	517.869	518.136	NaN	514.136	517.869	518.136	NaN
518.125	4	rest.jpg	NaN	NaN	518.125	521.867	522.125	NaN	518.125	521.867	522.125	NaN
522.148	4	Aircraft2_10%_18.jpg	1	0.1	522.148	525.884	522.899	1	522.148	525.884	522.899	1
526.21	4	Aircraft1_10%_29.jpg	0	0.1	526.21	529.95	526.762	0	526.21	529.95	526.762	0
530.232	4	Aircraft2_10%_1.jpg	1	0.1	530.232	533.965	530.961	1	530.232	533.965	530.961	1
534.284	4	Aircraft1_10%_26.jpg	0	0.1	534.284	538.024	534.882	0	534.284	538.024	534.882	0
538.3	4	Aircraft2_10%_34.jpg	1	0.1	538.3	542.038	538.926	1	538.3	542.038	538.926	1
542.303	4	rest.jpg	NaN	NaN	542.303	546.035	546.303	NaN	542.303	546.035	546.303	NaN
546.284	4	rest.jpg	NaN	NaN	546.284	550.021	550.284	NaN	546.284	550.021	550.284	NaN
550.265	4	rest.jpg	NaN	NaN	550.265	554.009	554.265	NaN	550.265	554.009	554.265	NaN
554.286	4	Aircraft2_90%_30.jpg	1	0.9	554.286	558.023	554.999	1	554.286	558.023	554.999	1
558.33	4	Aircraft2_90%_27.jpg	1	0.9	558.33	562.061	559.159	1	558.33	562.061	559.159	1
562.357	4	Aircraft2_90%_50.jpg	1	0.9	562.357	566.089	563.121	1	562.357	566.089	563.121	1
566.387	4	Aircraft2_90%_29.jpg	1	0.9	566.387	570.121	566.988	1	566.387	570.121	566.988	1
570.397	4	Aircraft1_90%_6.jpg	0	0.9	570.397	574.132	571.314	0	570.397	574.132	571.314	0
574.413	4	rest.jpg	NaN	NaN	574.413	578.145	578.413	NaN	574.413	578.145	578.413	NaN
578.376	4	rest.jpg	NaN	NaN	578.376	582.11	582.376	NaN	578.376	582.11	582.376	NaN
582.36	4	rest.jpg	NaN	NaN	582.36	586.099	586.36	NaN	582.36	586.099	586.36	NaN
586.364	4	Aircraft2_70%_17.jpg	1	0.75	586.364	590.096	586.912	1	586.364	590.096	586.912	1
590.402	4	Aircraft2_70%_11.jpg	1	0.75	590.402	594.134	590.912	1	590.402	594.134	590.912	1
594.434	4	Aircraft1_70%_20.jpg	0	0.75	594.434	598.165	595.949	0	594.434	598.165	595.949	0
598.431	4	Aircraft2_70%_47.jpg	1	0.75	598.431	602.163	599.166	1	598.431	602.163	599.166	1
602.466	4	Aircraft2_70%_45.jpg	1	0.75	602.466	606.203	603.137	1	602.466	606.203	603.137	1
606.484	4	rest.jpg	NaN	NaN	606.484	610.221	610.484	NaN	606.484	610.221	610.484	NaN
610.469	4	rest.jpg	NaN	NaN	610.469	614.201	614.469	NaN	610.469	614.201	614.469	NaN
614.45	4	rest.jpg	NaN	NaN	614.45	618.182	618.45	NaN	614.45	618.182	618.45	NaN
618.453	4	Aircraft1_10%_32.jpg	0	0.1	618.453	622.185	619.377	0	618.453	622.185	619.377	0
622.51	4	Aircraft1_10%_49.jpg	0	0.1	622.51	626.247	623.229	0	622.51	626.247	623.229	0
626.531	4	Aircraft2_10%_22.jpg	1	0.1	626.531	630.269	627.006	1	626.531	630.269	627.006	1
630.555	4	Aircraft1_10%_34.jpg	0	0.1	630.555	634.287	631.168	0	630.555	634.287	631.168	0
634.603	4	Aircraft1_10%_14.jpg	0	0.1	634.603	638.341	635.205	0	634.603	638.341	635.205	0
638.624	4	rest.jpg	NaN	NaN	638.624	642.356	642.624	NaN	638.624	642.356	642.624	NaN
642.59	4	rest.jpg	NaN	NaN	642.59	646.322	646.59	NaN	642.59	646.322	646.59	NaN
646.565	4	rest.jpg	NaN	NaN	646.565	650.297	650.565	NaN	646.565	650.297	650.565	NaN
650.562	4	Aircraft1_90%_1.jpg	0	0.9	650.562	654.296	651.636	0	650.562	654.296	651.636	0
654.598	4	Aircraft1_90%_47.jpg	0	0.9	654.598	658.331	655.285	0	654.598	658.331	655.285	0
658.649	4	Aircraft1_90%_40.jpg	0	0.9	658.649	662.384	659.379	0	658.649	662.384	659.379	0
662.661	4	Aircraft1_90%_27.jpg	0	0.9	662.661	666.398	663.87	0	662.661	666.398	663.87	0
666.698	4	Aircraft2_90%_35.jpg	1	0.9	666.698	670.433	667.328	1	666.698	670.433	667.328	1
670.696	4	rest.jpg	NaN	NaN	670.696	674.434	674.696	NaN	670.696	674.434	674.696	NaN
674.681	4	rest.jpg	NaN	NaN	674.681	678.413	678.681	NaN	674.681	678.413	678.681	NaN
678.66	4	rest.jpg	NaN	NaN	678.66	682.397	682.66	NaN	678.66	682.397	682.66	NaN
682.705	4	Aircraft2_70%_23.jpg	1	0.75	682.705	686.442	683.431	1	682.705	686.442	683.431	1
686.909	4	Aircraft1_70%_28.jpg	0	0.75	686.909	690.641	687.656	0	686.909	690.641	687.656	0
690.917	4	Aircraft2_70%_13.jpg	1	0.75	690.917	694.649	691.593	1	690.917	694.649	691.593	1
694.918	4	Aircraft1_70%_45.jpg	0	0.75	694.918	698.649	696.02	0	694.918	698.649	696.02	0
698.946	4	Aircraft1_70%_37.jpg	0	0.75	698.946	702.683	700.135	0	698.946	702.683	700.135	0
702.961	4	rest.jpg	NaN	NaN	702.961	706.693	706.961	NaN	702.961	706.693	706.961	NaN
706.942	4	rest.jpg	NaN	NaN	706.942	710.679	710.942	NaN	706.942	710.679	710.942	NaN
710.914	4	rest.jpg	NaN	NaN	710.914	714.648	714.914	NaN	710.914	714.648	714.914	NaN
714.931	4	Aircraft1_10%_25.jpg	0	0.1	714.931	718.664	715.571	0	714.931	718.664	715.571	0
718.985	4	Aircraft2_10%_49.jpg	1	0.1	718.985	722.719	719.646	1	718.985	722.719	719.646	1
723.004	4	Aircraft2_10%_10.jpg	1	0.1	723.004	726.736	723.716	1	723.004	726.736	723.716	1
727.011	4	Aircraft2_10%_12.jpg	1	0.1	727.011	730.751	727.711	1	727.011	730.751	727.711	1
731.038	4	Aircraft2_10%_7.jpg	1	0.1	731.038	734.769	731.775	1	731.038	734.769	731.775	1
735.053	4	rest.jpg	NaN	NaN	735.053	738.785	739.053	NaN	735.053	738.785	739.053	NaN
739.032	4	rest.jpg	NaN	NaN	739.032	742.764	743.032	NaN	739.032	742.764	743.032	NaN
743.009	4	rest.jpg	NaN	NaN	743.009	746.741	747.009	NaN	743.009	746.741	747.009	NaN
747.036	4	Aircraft2_90%_17.jpg	1	0.9	747.036	750.773	748.071	1	747.036	750.773	748.071	1
751.076	4	Aircraft2_90%_11.jpg	1	0.9	751.076	754.811	752.263	1	751.076	754.811	752.263	1
755.09	4	Aircraft1_90%_20.jpg	0	0.9	755.09	758.828	756.175	0	755.09	758.828	756.175	0
759.122	4	Aircraft2_90%_47.jpg	1	0.9	759.122	762.854	760.425	1	759.122	762.854	760.425	1
763.172	4	Aircraft2_90%_45.jpg	1	0.9	763.172	766.903	763.944	1	763.172	766.903	763.944	1
767.19	4	rest.jpg	NaN	NaN	767.19	770.922	771.19	NaN	767.19	770.922	771.19	NaN
771.158	4	rest.jpg	NaN	NaN	771.158	774.892	775.158	NaN	771.158	774.892	775.158	NaN
775.138	4	rest.jpg	NaN	NaN	775.138	778.87	779.138	NaN	775.138	778.87	779.138	NaN
779.189	4	Aircraft1_70%_38.jpg	0	0.75	779.189	782.926	780.228	0	779.189	782.926	780.228	0
783.24	4	Aircraft2_70%_21.jpg	1	0.75	783.24	786.975	783.869	1	783.24	786.975	783.869	1
787.263	4	Aircraft1_70%_16.jpg	0	0.75	787.263	790.997	787.865	0	787.263	790.997	787.865	0
791.314	4	Aircraft1_70%_46.jpg	0	0.75	791.314	795.046	792.026	0	791.314	795.046	792.026	0
795.332	4	Aircraft2_70%_40.jpg	1	0.75	795.332	799.07	796.116	1	795.332	799.07	796.116	1
799.333	4	rest.jpg	NaN	NaN	799.333	803.07	803.333	NaN	799.333	803.07	803.333	NaN
803.317	4	rest.jpg	NaN	NaN	803.317	807.05	807.317	NaN	803.317	807.05	807.317	NaN
807.295	4	rest.jpg	NaN	NaN	807.295	811.029	811.295	NaN	807.295	811.029	811.295	NaN
811.355	4	Aircraft1_10%_3.jpg	0	0.1	811.355	815.087	812.486	0	811.355	815.087	812.486	0
815.399	4	Aircraft2_10%_28.jpg	1	0.1	815.399	819.138	816.116	1	815.399	819.138	816.116	1
819.423	4	Aircraft1_10%_24.jpg	0	0.1	819.423	823.16	820.235	0	819.423	823.16	820.235	0
823.718	4	Aircraft2_10%_39.jpg	1	0.1	823.718	827.455	824.204	1	823.718	827.455	824.204	1
827.759	4	Aircraft2_10%_8.jpg	1	0.1	827.759	831.499	828.493	1	827.759	831.499	828.493	1
831.785	4	rest.jpg	NaN	NaN	831.785	835.519	835.785	NaN	831.785	835.519	835.785	NaN
835.75	4	rest.jpg	NaN	NaN	835.75	839.482	839.75	NaN	835.75	839.482	839.75	NaN
839.715	4	rest.jpg	NaN	NaN	839.715	843.454	843.715	NaN	839.715	843.454	843.715	NaN
843.736	4	Aircraft1_90%_36.jpg	0	0.9	843.736	847.473	844.985	0	843.736	847.473	844.985	0
848.014	4	Aircraft1_90%_35.jpg	0	0.9	848.014	851.753	849.288	0	848.014	851.753	849.288	0
852.058	4	Aircraft2_90%_3.jpg	1	0.9	852.058	855.794	852.822	1	852.058	855.794	852.822	1
856.094	4	Aircraft1_90%_5.jpg	0	0.9	856.094	859.828	857.146	0	856.094	859.828	857.146	0
860.121	4	Aircraft1_90%_48.jpg	0	0.9	860.121	863.861	861.058	0	860.121	863.861	861.058	0
864.138	4	rest.jpg	NaN	NaN	864.138	867.873	868.138	NaN	864.138	867.873	868.138	NaN
868.11	4	rest.jpg	NaN	NaN	868.11	871.844	872.11	NaN	868.11	871.844	872.11	NaN
872.1	4	rest.jpg	NaN	NaN	872.1	875.836	876.1	NaN	872.1	875.836	876.1	NaN
876.123	4	Aircraft2_70%_30.jpg	1	0.75	876.123	879.859	876.768	1	876.123	879.859	876.768	1
880.146	4	Aircraft2_70%_27.jpg	1	0.75	880.146	883.884	880.706	1	880.146	883.884	880.706	1
884.154	4	Aircraft2_70%_50.jpg	1	0.75	884.154	887.894	884.716	1	884.154	887.894	884.716	1
888.214	4	Aircraft2_70%_29.jpg	1	0.75	888.214	891.953	888.751	1	888.214	891.953	888.751	1
892.288	4	Aircraft1_70%_6.jpg	0	0.75	892.288	896.026	893.154	0	892.288	896.026	893.154	0
896.306	4	rest.jpg	NaN	NaN	896.306	900.038	900.306	NaN	896.306	900.038	900.306	NaN
900.288	4	rest.jpg	NaN	NaN	900.288	904.025	904.288	NaN	900.288	904.025	904.288	NaN
904.271	4	rest.jpg	NaN	NaN	904.271	908.011	908.271	NaN	904.271	908.011	908.271	NaN
908.316	4	Aircraft2_10%_14.jpg	1	0.1	908.316	912.05	909.496	1	908.316	912.05	909.496	1
912.36	4	Aircraft2_10%_5.jpg	1	0.1	912.36	916.099	912.918	1	912.36	916.099	912.918	1
916.431	4	Aircraft2_10%_15.jpg	1	0.1	916.431	920.168	916.885	1	916.431	920.168	916.885	1
920.44	4	Aircraft2_10%_19.jpg	1	0.1	920.44	924.179	920.998	1	920.44	924.179	920.998	1
924.49	4	Aircraft1_10%_31.jpg	0	0.1	924.49	928.229	925.041	0	924.49	928.229	925.041	0
928.515	4	rest.jpg	NaN	NaN	928.515	932.249	932.515	NaN	928.515	932.249	932.515	NaN
932.481	4	rest.jpg	NaN	NaN	932.481	936.212	936.481	NaN	932.481	936.212	936.481	NaN
936.459	4	rest.jpg	NaN	NaN	936.459	940.191	940.459	NaN	936.459	940.191	940.459	NaN
940.481	4	Aircraft1_90%_2.jpg	0	0.9	940.481	944.213	941.119	0	940.481	944.213	941.119	0
944.489	4	Aircraft1_90%_39.jpg	0	0.9	944.489	948.221	945.125	0	944.489	948.221	945.125	0
948.546	4	Aircraft2_90%_26.jpg	1	0.9	948.546	952.278	949.101	1	948.546	952.278	949.101	1
952.564	4	Aircraft1_90%_15.jpg	0	0.9	952.564	956.302	953.364	0	952.564	956.302	953.364	0
956.612	4	Aircraft2_90%_16.jpg	1	0.9	956.612	960.352	957.326	1	956.612	960.352	957.326	1
960.636	4	rest.jpg	NaN	NaN	960.636	964.368	964.636	NaN	960.636	964.368	964.636	NaN
964.613	4	rest.jpg	NaN	NaN	964.613	968.348	968.613	NaN	964.613	968.348	968.613	NaN
968.582	4	rest.jpg	NaN	NaN	968.582	972.313	972.582	NaN	968.582	972.313	972.582	NaN
972.586	4	Aircraft1_70%_1.jpg	0	0.75	972.586	976.325	974.527	0	972.586	976.325	974.527	0
976.88	4	Aircraft1_70%_47.jpg	0	0.75	976.88	980.612	977.998	0	976.88	980.612	977.998	0
981.159	4	Aircraft1_70%_40.jpg	0	0.75	981.159	984.891	982.128	0	981.159	984.891	982.128	0
985.175	4	Aircraft1_70%_27.jpg	0	0.75	985.175	988.907	985.96	0	985.175	988.907	985.96	0
989.194	4	Aircraft2_70%_35.jpg	1	0.75	989.194	992.928	989.857	1	989.194	992.928	989.857	1
993.206	4	rest.jpg	NaN	NaN	993.206	996.943	997.206	NaN	993.206	996.943	997.206	NaN
997.189	4	rest.jpg	NaN	NaN	997.189	1000.924	1001.189	NaN	997.189	1000.924	1001.189	NaN
1001.167	4	rest.jpg	NaN	NaN	1001.167	1004.902	1005.167	NaN	1001.167	1004.902	1005.167	NaN
